accx,accy,accz
0.9445,-0.1742,-0.2615
0.9445,-0.1742,-0.2615
0.9367,-0.1762,-0.2596
0.9289,-0.182,-0.2596
0.9171,-0.1801,-0.2576
0.9739,-0.184,-0.2771
0.9739,-0.184,-0.2771
0.9856,-0.1801,-0.2596
0.968,-0.1722,-0.2459
0.9387,-0.1742,-0.2459
0.9641,-0.1762,-0.2733
0.9641,-0.1762,-0.2733
0.9485,-0.1762,-0.2694
0.9406,-0.1859,-0.2752
0.9231,-0.184,-0.2654
0.9289,-0.2015,-0.2967
0.9387,-0.2036,-0.2771
0.9308,-0.184,-0.2654
0.9269,-0.1528,-0.2596
0.9583,-0.1976,-0.2557
0.9583,-0.1976,-0.2557
0.9562,-0.1918,-0.2674
0.9543,-0.1899,-0.244
0.9426,-0.1879,-0.2381
0.9367,-0.1468,-0.2224
0.9367,-0.1468,-0.2224
0.884,-0.1586,-0.2284
0.9485,-0.1586,-0.1932
1.0168,-0.1273,-0.2576
1.0188,-0.0981,-0.1951
1.011,-0.0921,-0.1932
1.0149,-0.0902,-0.1814
1.009,-0.0883,-0.1932
0.9152,-0.0804,-0.1716
0.9523,0.2087,-0.1639
1.0754,-0.0433,-0.1483
1.0617,0.0426,-0.1834
1.0226,0.0152,-0.1658
1.1048,-0.096,-0.1893
0.8488,-0.3384,-0.1423
0.8214,-0.2211,-0.1599
0.9543,-0.1058,-0.2068
0.9934,-0.0316,-0.1658
1.009,0.0406,-0.1912
0.9641,-0.1899,-0.1131
0.9485,-0.1626,-0.0661
0.9367,-0.1391,-0.0994
0.9758,-0.0844,-0.158
1.052,-0.3442,-0.1697
0.7804,0.6288,0.0491
1.1341,0.0445,-0.1716
1.0676,-0.0277,-0.1033
0.9797,-0.5865,-0.1541
0.8957,-0.1664,-0.1092
1.052,-0.1782,-0.1326
1.0598,-0.1293,-0.1287
0.9836,-0.1137,-0.1287
0.9797,-0.059,-0.1404
0.9816,-0.0921,-0.1169
0.9816,-0.096,-0.1345
0.9739,-0.1039,-0.1599
1.0207,-0.1078,-0.1599
0.9308,-0.1332,-0.1462
0.9094,-0.1214,-0.0701
1.0226,-0.0238,-0.242
1.0226,-0.0238,-0.242
0.9485,-0.0706,-0.1951
0.9192,-0.1097,-0.1932
0.968,-0.1254,-0.2088
0.9758,-0.1117,-0.2107
0.9699,-0.1117,-0.1951
0.9562,-0.1137,-0.199
0.9583,-0.1097,-0.1853
0.9758,-0.1039,-0.1872
0.8644,-0.1547,-0.1521
0.8644,-0.1547,-0.1521
1.052,-0.1391,-0.2147
1.0247,-0.1488,-0.1872
0.9797,-0.1488,-0.1131
0.9641,-0.0531,-0.1776
0.9778,-0.0492,-0.1619
0.9836,-0.096,-0.1697
1.013,-0.1097,-0.1893
1.0051,-0.1156,-0.1872
0.966,-0.1273,-0.1872
0.968,-0.1566,-0.1912
0.9641,-0.1645,-0.1814
0.9562,-0.1528,-0.1736
0.9895,-0.1684,-0.1795
0.9856,-0.1528,-0.1639
0.9856,-0.1528,-0.1639
0.9836,-0.1449,-0.158
0.9778,-0.1078,-0.1443
0.9602,-0.1137,-0.1404
0.9523,-0.1918,-0.1736
0.9523,-0.1918,-0.1736
0.9523,-0.2015,-0.1814
0.9562,-0.2153,-0.1678
0.9914,-0.1762,-0.1541
0.9914,-0.1762,-0.1541
0.9876,-0.1684,-0.158
0.9993,-0.1703,-0.1678
0.9856,-0.2563,-0.199
0.9739,-0.2739,-0.1932
0.9523,-0.2602,-0.1697
0.9523,-0.2602,-0.1697
1.0012,-0.2485,-0.1814
1.052,-0.2485,-0.2147
1.054,-0.2485,-0.2361
0.9993,-0.2211,-0.1736
0.9993,-0.2211,-0.1736
1.0324,-0.1996,-0.158
1.0931,-0.1684,-0.1443
1.2377,-0.1137,-0.0779
1.1849,-0.184,-0.1541
1.1849,-0.184,-0.1541
1.1399,-0.1351,-0.1423
1.2571,-0.0883,-0.1404
1.39,-0.0473,-0.1893
1.181,0.1559,-0.2517
1.1888,0.152,-0.2166
1.1576,0.0934,-0.197
1.0989,-0.0706,0.0744
0.9972,-0.0921,-0.2517
0.9972,-0.0921,-0.2517
1.0247,-0.0648,-0.2635
1.0051,-0.0433,-0.3124
0.9387,-0.0336,-0.2987
0.8312,0.0504,-0.3416
0.8312,0.0504,-0.3416
0.7648,0.0914,-0.2908
0.7589,0.0504,-0.244
0.7257,-0.0003,-0.3632
0.7804,-0.0902,-0.4785
0.7862,-0.1058,-0.4569
0.6866,-0.0706,-0.4725
0.6026,-0.0199,-0.5097
0.5771,0.0718,-0.412
0.5908,0.0855,-0.4862
0.5908,0.0855,-0.4862
0.5908,0.0914,-0.5409
0.5557,0.0231,-0.5957
0.5479,0.0035,-0.6269
0.5498,-0.0238,-0.6211
0.544,-0.0727,-0.6054
0.6124,-0.1,-0.6758
0.7667,-0.0804,-0.7286
0.8938,-0.0101,-0.6562
1.2279,0.1813,-0.6465
1.2943,0.2067,-0.6152
1.435,0.2946,-0.6269
1.0579,0.0953,-0.5605
0.9523,0.0621,-0.3924
0.9192,-0.0003,-0.3241
0.9054,0.0094,-0.326
0.8586,0.0758,-0.3006
0.9348,0.1383,-0.2831
0.9972,0.2126,-0.3006
0.9739,0.1207,-0.2948
0.9739,0.1207,-0.2948
0.9035,-0.0159,-0.2635
0.8781,-0.0863,-0.2674
0.8938,-0.1019,-0.2694
0.9289,-0.1528,-0.2733
0.9289,-0.1528,-0.2733
0.8781,-0.0785,-0.2596
0.8644,-0.059,-0.2615
0.8527,-0.0492,-0.2615
0.882,-0.0375,-0.2303
0.9094,-0.1176,-0.1853
0.8507,-0.1351,-0.2205
0.8175,-0.1566,-0.2557
0.7902,-0.1645,-0.2479
0.7921,-0.184,-0.1619
0.8938,-0.1684,-0.2126
0.9367,-0.1742,-0.203
0.9621,-0.1782,-0.2224
0.9465,-0.184,-0.2733
1.0188,-0.2192,-0.2987
1.0305,-0.225,-0.2908
1.0559,-0.1996,-0.2596
1.1868,-0.0531,-0.1814
1.1868,-0.0531,-0.1814
1.2923,-0.0667,-0.0994
1.2571,-0.1938,-0.2342
1.1478,-0.3813,-0.285
1.2161,0.0426,-0.1599
1.1634,0.1266,-0.1462
1.1634,0.1266,-0.1462
0.9895,0.1051,-0.1208
0.9211,0.1032,-0.0798
1.0598,0.0054,-0.2401
1.1106,-0.0316,-0.1872
1.0774,-0.0394,-0.1287
1.007,-0.0003,-0.1599
1.0226,0.0426,-0.2126
1.0363,0.0367,-0.2792
1.007,0.0073,-0.2811
0.9523,0.0094,-0.3104
0.968,0.0231,-0.3241
0.9641,0.0406,-0.3553
0.9211,0.0171,-0.3065
0.8449,-0.0277,-0.2831
0.8253,-0.0569,-0.3299
0.8214,-0.0336,-0.3924
0.8019,-0.0023,-0.4003
0.7687,0.025,-0.4687
0.6886,-0.0062,-0.4198
0.6162,-0.0101,-0.4452
0.6495,0.0073,-0.4238
0.671,0.0152,-0.4531
0.6944,0.0015,-0.4785
0.6319,0.0308,-0.5723
0.6807,0.0876,-0.6094
0.6749,0.113,-0.6426
0.5967,0.1207,-0.6387
0.5771,0.1109,-0.6406
0.585,0.0485,-0.625
0.5576,0.0269,-0.6718
0.628,0.025,-0.7226
0.6476,0.0073,-0.7324
0.6632,-0.0042,-0.7363
0.671,-0.0082,-0.7149
0.7492,0.0485,-0.6269
0.8977,0.1188,-0.6426
1.2415,0.2224,-0.8458
1.2317,0.2497,-0.9005
0.966,0.1012,-0.7871
0.8507,-0.0394,-0.709
0.9211,0.0133,-0.6699
1.0188,0.068,-0.6211
1.0188,0.109,-0.4648
0.8957,0.1676,-0.3944
0.8156,0.1363,-0.3378
0.7941,0.1188,-0.3358
0.8214,0.0641,-0.2889
0.8917,0.0485,-0.3358
0.9231,0.0073,-0.3651
0.9231,0.0073,-0.3651
0.8977,0.0073,-0.3514
0.8644,-0.0101,-0.3339
0.8644,-0.1039,-0.3397
0.8644,-0.1039,-0.3397
0.8468,-0.143,-0.3514
0.8332,-0.1293,-0.328
0.8116,-0.0394,-0.3182
0.8332,-0.0433,-0.3241
0.8898,-0.0706,-0.3416
0.9171,-0.1235,-0.3065
0.9094,-0.1332,-0.2987
0.8488,-0.1449,-0.2948
0.8664,-0.1254,-0.3299
0.8742,-0.1176,-0.3162
0.8703,-0.1137,-0.3006
0.8273,-0.1273,-0.2889
0.8644,-0.1235,-0.3319
0.9269,-0.182,-0.3436
0.9387,-0.2309,-0.3572
0.9094,-0.2348,-0.3241
0.884,-0.2113,-0.2967
0.8917,-0.1528,-0.2186
0.9816,-0.0433,-0.1189
1.1204,0.0113,-0.115
1.22,-0.1547,-0.201
1.2435,-0.1508,-0.2479
1.3607,-0.1195,-0.2361
1.4839,-0.1273,-0.2635
1.4936,-0.143,-0.2792
1.2552,-0.0296,-0.2205
1.1751,0.0054,-0.197
1.0617,0.066,-0.2361
0.9993,0.1168,-0.2498
1.0833,0.1344,-0.2126
1.1048,0.0836,-0.1912
1.0442,-0.0003,-0.1639
0.9836,-0.0473,-0.2088
0.8644,-0.0981,-0.3378
0.8644,-0.0981,-0.3378
0.8781,-0.0453,-0.3612
0.882,-0.0179,-0.3476
0.8625,0.0348,-0.3476
0.7648,0.0562,-0.3182
0.7315,-0.0746,-0.4081
0.7315,-0.0746,-0.4081
0.7315,-0.0981,-0.4217
0.7315,-0.1195,-0.4823
0.7217,-0.0023,-0.4531
0.6534,0.0015,-0.4648
0.6534,0.0015,-0.4648
0.6416,0.0094,-0.4706
0.6221,0.1226,-0.5644
0.6183,0.1324,-0.5293
0.6104,0.1207,-0.5742
0.6143,0.1188,-0.5996
0.6046,0.0895,-0.6308
0.5518,0.0641,-0.6582
0.585,0.0739,-0.6972
0.6085,-0.014,-0.7149
0.6085,-0.014,-0.7149
0.6886,0.0739,-0.7559
0.7471,0.0953,-0.7442
0.7159,0.0797,-0.7207
0.8723,0.0816,-0.6015
0.8723,0.0816,-0.6015
1.1262,0.1363,-0.6972
1.2298,0.1969,-0.7969
1.1614,0.2321,-0.8418
0.8332,0.1735,-0.5312
0.8293,0.1579,-0.5058
0.8742,0.068,-0.4217
0.8898,-0.0159,-0.3495
0.882,-0.014,-0.328
0.9621,0.0699,-0.3085
1.013,0.0718,-0.3241
0.9972,0.0387,-0.3182
0.9504,0.0094,-0.3358
0.9094,0.0113,-0.3299
0.8996,0.0855,-0.2967
0.9406,0.0718,-0.2987
0.9348,0.0015,-0.2967
0.8859,-0.0609,-0.3143
0.8332,-0.1626,-0.326
0.8547,-0.0844,-0.2694
0.8547,-0.0844,-0.2694
0.8859,-0.0082,-0.2538
0.8723,0.0054,-0.2889
0.8273,-0.0316,-0.2752
0.8644,-0.1195,-0.2498
0.8644,-0.1195,-0.2498
0.8351,-0.1391,-0.2733
0.8527,-0.1605,-0.1872
0.8234,-0.1566,-0.2088
0.9485,-0.1664,-0.2771
0.9836,-0.184,-0.2831
0.9778,-0.1918,-0.2948
1.0149,-0.1859,-0.2284
1.0871,-0.1312,-0.1893
1.0871,-0.1312,-0.1893
1.1614,-0.1019,-0.2186
1.2729,-0.0823,-0.2284
1.3314,-0.1019,-0.2126
1.3861,-0.0082,-0.2303
1.3861,-0.0082,-0.2303
1.3119,0.0485,-0.1951
1.177,0.1598,-0.1619
1.0696,0.2399,-0.2517
1.0149,0.0152,-0.1736
1.0149,0.0152,-0.1736
0.9972,-0.0062,-0.1795
0.9054,-0.1391,-0.3026
0.8801,-0.1371,-0.2967
0.8468,-0.0159,-0.2792
0.925,0.0953,-0.3456
0.925,0.0953,-0.3456
0.882,0.1481,-0.3065
0.839,0.1266,-0.2948
0.8019,0.0972,-0.2792
0.7687,0.0485,-0.3924
0.7648,-0.0082,-0.4354
0.7042,-0.0433,-0.4452
0.6085,-0.0667,-0.5312
0.5967,-0.0511,-0.4725
0.6299,-0.0238,-0.5039
0.628,0.0054,-0.5409
0.6339,0.0562,-0.5644
0.6593,0.0739,-0.5859
0.6299,0.109,-0.5977
0.6299,0.109,-0.5977
0.6026,0.0876,-0.6171
0.5655,0.0406,-0.6504
0.5596,0.0816,-0.6641
0.6202,0.0699,-0.666
0.626,0.0739,-0.707
0.671,0.0641,-0.7617
0.7706,0.0485,-0.7833
0.9171,0.0113,-0.838
1.095,0.066,-0.8204
1.095,0.066,-0.8204
0.9075,0.0641,-0.7384
0.9719,0.1461,-0.4667
1.179,0.2986,-0.625
0.7452,-0.0453,-0.3593
0.7452,-0.0453,-0.3593
0.7452,-0.0453,-0.3593
0.7941,-0.0218,-0.3006
1.0207,0.1109,-0.369
1.0207,0.1109,-0.369
1.0207,0.1109,-0.369
1.0696,0.1168,-0.3905
0.882,0.0621,-0.3162
0.8273,0.0191,-0.3182
0.8312,0.0211,-0.3143
0.8527,-0.0042,-0.3124
0.837,-0.0902,-0.3026
0.8293,-0.0981,-0.2694
0.8273,-0.0902,-0.2479
0.8468,-0.0863,-0.2284
0.8527,-0.0473,-0.2517
0.8136,-0.0511,-0.2263
0.7999,-0.0082,-0.244
0.8586,-0.0218,-0.2713
0.925,-0.1,-0.2908
0.925,-0.1,-0.2908
0.8917,-0.1938,-0.2967
0.8761,-0.2192,-0.3221
0.925,-0.2348,-0.3241
0.9426,-0.2231,-0.3085
0.9739,-0.2036,-0.3632
0.9739,-0.2192,-0.3104
0.9426,-0.1879,-0.2752
0.9934,-0.0902,-0.2479
1.222,0.0367,-0.1639
1.222,0.0367,-0.1639
1.2494,-0.141,-0.242
1.224,-0.2504,-0.2517
1.3412,-0.1918,-0.2303
1.4233,-0.1137,-0.1853
1.2767,0.0015,-0.2049
1.1634,0.1032,-0.1893
1.0735,0.1559,-0.1951
1.0422,0.1579,-0.2381
1.0931,0.0992,-0.199
1.0579,0.0739,-0.1365
1.0149,0.0387,-0.1502
1.011,0.0054,-0.2205
1.009,-0.0375,-0.2694
0.9192,-0.0238,-0.2811
0.8488,0.0094,-0.2713
0.798,0.0523,-0.3436
0.8312,0.1363,-0.4452
0.7785,0.107,-0.3456
0.7745,-0.1195,-0.4765
0.7745,-0.1195,-0.4765
0.7745,-0.1195,-0.4765
0.6437,-0.1137,-0.4823
0.5596,-0.059,-0.4491
0.5088,0.0816,-0.4902
0.5264,0.0953,-0.5018
0.5264,0.0953,-0.5018
0.6319,0.1226,-0.539
0.5694,0.0836,-0.6133
0.5303,0.1246,-0.6641
0.5303,0.1246,-0.6641
0.5264,0.109,-0.6816
0.5284,0.1344,-0.7324
0.5792,0.1461,-0.7149
0.6984,0.0328,-0.7226
0.712,0.0113,-0.7226
0.7648,-0.0706,-0.7696
0.8879,0.0269,-0.6485
1.2631,0.2439,-0.9806
1.3823,0.3083,-0.8849
1.0501,0.1754,-0.713
0.7492,0.1324,-0.5957
0.6964,0.0406,-0.4804
0.755,0.0073,-0.367
0.7823,0.0073,-0.3416
0.9367,0.1149,-0.3124
1.0989,0.154,-0.3358
1.054,0.1286,-0.3612
1.0012,0.0504,-0.3632
0.9035,0.0426,-0.2948
0.8253,0.0601,-0.2615
0.8136,0.0504,-0.242
0.843,0.0113,-0.2576
0.841,-0.0863,-0.3085
0.8781,-0.096,-0.3182
0.9445,-0.0765,-0.3162
1.0012,-0.0706,-0.2517
0.968,-0.0296,-0.2557
0.9426,-0.0042,-0.2674
0.9445,-0.0394,-0.2733
0.8957,-0.0433,-0.2361
0.8332,-0.0355,-0.2615
0.8058,-0.1019,-0.2166
0.8097,-0.1508,-0.2322
0.8097,-0.1508,-0.2322
0.843,-0.1528,-0.2498
0.882,-0.1332,-0.2576
0.9329,-0.1664,-0.2517
0.9192,-0.1782,-0.2674
0.9445,-0.2269,-0.2733
0.9876,-0.2309,-0.2615
0.9485,-0.1703,-0.3397
1.0559,-0.1547,-0.2596
1.2474,-0.014,-0.1893
1.306,-0.014,-0.1912
1.2415,-0.0101,-0.1872
1.2122,-0.2348,-0.2557
1.2377,-0.1976,-0.2186
1.1927,-0.0609,-0.2186
1.1672,-0.0355,-0.1932
1.0989,0.0876,-0.156
1.0989,0.1735,0.0568
1.0012,0.1305,0.0276
0.9269,0.1286,-0.0212
0.9231,0.1051,-0.0798
1.0168,0.0972,-0.1599
1.0754,-0.014,-0.2205
0.9504,0.0073,-0.1658
0.9504,0.0073,-0.1658
0.9054,0.0485,-0.197
0.843,0.0641,-0.1365
0.837,0.0445,-0.1795
0.8917,0.0073,-0.3299
1.0188,-0.0082,-0.4159
1.0168,0.0035,-0.3924
0.798,0.0211,-0.3026
0.6612,-0.0199,-0.2771
0.6397,-0.1039,-0.3495
0.671,-0.1078,-0.3924
0.669,-0.0706,-0.412
0.6749,-0.0316,-0.4315
0.6476,0.0426,-0.4315
0.6006,0.109,-0.4022
0.542,0.0758,-0.3984
0.5557,0.0387,-0.4433
0.6085,0.0094,-0.4843
0.6924,-0.0277,-0.4999
0.8058,-0.0375,-0.5449
0.8957,-0.0082,-0.6113
1.0422,-0.0159,-0.5879
1.1634,-0.0199,-0.6015
1.1986,-0.0042,-0.6445
1.0422,0.0152,-0.7051
0.8917,-0.0687,-0.8126
0.8488,-0.0765,-0.838
0.798,-0.0473,-0.8478
0.7433,-0.0531,-0.8106
0.9621,0.1109,-0.5332
1.5581,0.2809,-0.3651
1.2591,0.5878,-0.0544
0.9289,0.5115,-0.1052
0.6358,0.2986,-0.1326
0.5811,0.0934,-0.031
0.9485,-0.0394,-0.1092
1.1712,-0.0336,-0.1872
1.2259,0.0504,-0.2263
1.0403,0.0601,-0.2557
0.8351,0.0582,-0.2498
0.8351,0.0582,-0.2498
0.843,0.068,-0.2654
0.796,0.0171,-0.2224
0.7883,-0.0844,-0.2205
0.8351,-0.1645,-0.3085
0.8351,-0.1645,-0.3085
0.841,-0.1586,-0.3143
0.8957,-0.1371,-0.2908
0.9758,0.0113,-0.2694
0.8996,0.0171,-0.2831
0.8996,0.0171,-0.2831
0.8019,-0.0101,-0.2538
0.8097,-0.0687,-0.2792
0.8566,-0.0823,-0.2713
0.9094,-0.0629,-0.2771
0.9758,-0.0609,-0.3006
1.0559,-0.096,-0.2792
1.0754,-0.1742,-0.2517
1.1048,-0.2309,-0.242
1.011,-0.2974,-0.2831
1.0833,-0.2974,-0.326
1.0833,-0.2974,-0.326
1.4585,-0.4165,-0.2908
1.4096,-0.4634,-0.2908
1.2708,-0.3501,-0.244
1.1497,0.152,-0.3143
1.1458,0.3885,-0.1951
1.22,0.3122,-0.3124
1.0892,0.0426,-0.1619
1.1888,-0.1938,-0.1853
1.1653,-0.2778,-0.0095
0.968,0.0054,0.0216
1.0384,0.1344,-0.0212
1.1712,0.3161,0.0628
1.3119,0.6952,-0.0954
1.0461,0.4353,-0.1208
0.9152,0.2164,-0.1287
0.9113,0.0562,-0.1756
1.1282,-0.0629,-0.2635
1.2142,0.0328,-0.2771
1.177,0.0406,-0.2284
1.0833,0.0504,-0.2792
0.9758,0.0406,-0.1639
0.7941,0.0718,-0.2576
0.7101,0.0895,-0.2517
0.8097,0.1207,-0.3358
0.9465,0.1032,-0.4491
0.9856,0.068,-0.4687
0.8312,-0.0003,-0.4882
0.7179,-0.0569,-0.4785
0.628,-0.0921,-0.4725
0.5987,-0.0473,-0.4629
0.585,0.0289,-0.4862
0.6299,0.0895,-0.4785
0.6416,0.1305,-0.4999
0.6339,0.1657,-0.5214
0.585,0.1813,-0.4999
0.5147,0.0739,-0.5527
0.5635,0.0289,-0.58
0.5635,0.0289,-0.58
0.667,-0.0003,-0.5566
0.7179,-0.0375,-0.6758
0.7355,-0.0473,-0.6211
0.8566,0.1383,-0.5977
1.3178,0.324,-0.5703
1.3998,0.3337,-0.6914
1.0579,0.0328,-0.6133
0.7061,-0.0003,-0.4608
0.8234,0.0367,-0.3963
0.9445,0.0797,-0.2948
0.9445,0.0934,-0.2967
1.0012,0.2809,-0.3593
1.0305,0.2516,-0.4003
0.9133,0.1149,-0.3905
0.9445,0.0485,-0.3553
0.9231,0.0133,-0.3026
0.8351,-0.0062,-0.2967
0.8312,-0.0042,-0.2889
0.8684,0.0211,-0.2929
0.882,-0.0179,-0.3436
0.8996,-0.1019,-0.3807
0.882,-0.0863,-0.3221
0.8781,-0.0531,-0.3572
0.8664,-0.0629,-0.3241
0.8488,-0.014,-0.2987
0.8723,-0.0257,-0.3026
0.8996,-0.059,-0.3065
0.8898,-0.0941,-0.2889
0.8781,-0.141,-0.2889
0.8214,-0.184,-0.2654
0.8058,-0.1722,-0.2733
0.8039,-0.141,-0.2908
0.8566,-0.0981,-0.2869
0.968,-0.1664,-0.3162
0.968,-0.1664,-0.3162
0.9758,-0.2192,-0.2811
1.0324,-0.1879,-0.3339
1.0813,-0.1566,-0.3162
1.1907,0.0348,-0.199
1.2474,0.0406,-0.1872
1.2279,-0.0062,-0.197
1.2142,-0.184,-0.2049
1.3607,0.0191,-0.1052
1.3607,0.0191,-0.1052
1.2377,0.0953,-0.1678
1.0638,0.1813,-0.1872
1.0051,0.1931,-0.1776
1.0384,0.0836,-0.1912
1.0266,0.0171,-0.2224
1.0266,0.0171,-0.2224
1.009,-0.0316,-0.2792
1.0051,-0.0453,-0.3397
0.9211,-0.0433,-0.3651
0.8703,-0.0706,-0.3807
0.8801,-0.0687,-0.3768
0.8938,-0.0492,-0.4061
0.8938,0.0992,-0.3924
0.8449,0.0836,-0.3905
0.7589,-0.0042,-0.4022
0.6924,-0.0492,-0.4159
0.6924,-0.0492,-0.4159
0.6788,-0.0296,-0.4608
0.7081,-0.0062,-0.4433
0.7355,0.068,-0.4921
0.6124,0.154,-0.5723
0.5655,0.1188,-0.5547
0.5303,0.0269,-0.5586
0.5733,-0.0492,-0.5234
0.5538,-0.0257,-0.5625
0.5479,0.1032,-0.5859
0.5205,0.1226,-0.6406
0.5284,0.1363,-0.6836
0.5948,0.1246,-0.7226
0.6612,0.0758,-0.7657
0.7042,0.1168,-0.7989
0.6886,0.1286,-0.7911
0.6456,0.0621,-0.7794
0.6593,-0.0062,-0.8165
0.8468,0.0562,-0.754
1.3197,0.2399,-0.6465
1.2063,0.2106,-0.7833
1.0207,0.1461,-0.713
0.8742,0.0934,-0.5449
0.837,0.0328,-0.3339
0.882,0.0269,-0.2908
0.9308,0.0601,-0.2948
0.9485,0.1032,-0.2987
1.0266,0.1481,-0.3632
1.0363,0.0641,-0.3456
1.0305,0.0523,-0.3476
0.9816,0.0308,-0.3182
0.8586,0.0211,-0.2635
0.7823,0.025,-0.2635
0.8293,-0.014,-0.2694
0.8293,-0.014,-0.2694
0.8351,-0.0629,-0.2654
0.8781,-0.0785,-0.2831
0.8977,-0.0433,-0.244
0.9035,-0.0082,-0.2635
0.9075,-0.0003,-0.2654
0.8957,-0.0316,-0.2538
0.8566,-0.0844,-0.2381
0.8781,-0.0941,-0.2517
0.8781,-0.0941,-0.2517
0.8859,-0.1176,-0.2303
0.9094,-0.1156,-0.2615
0.9523,-0.1176,-0.2771
0.9758,-0.1351,-0.2713
0.9426,-0.1586,-0.2771
0.9308,-0.2113,-0.3339
0.9308,-0.2113,-0.3339
0.9289,-0.1957,-0.3358
0.9231,-0.1488,-0.3221
0.9758,-0.0727,-0.199
0.9758,-0.0727,-0.199
1.136,-0.0433,-0.1912
1.2513,-0.0433,-0.2205
1.2552,-0.2211,-0.3006
1.3881,-0.059,-0.2811
1.3881,-0.059,-0.2811
1.4662,-0.0413,-0.2733
1.3139,-0.0609,-0.2479
1.1126,-0.0316,-0.1912
1.0247,-0.0257,-0.2459
0.9953,0.0015,-0.2147
1.0363,0.0367,-0.199
0.9816,0.1422,-0.2322
0.9816,0.1422,-0.2322
0.9895,0.066,-0.4217
1.0051,-0.0277,-0.4394
1.0207,-0.1097,-0.455
0.8957,-0.0609,-0.3905
0.8957,-0.0609,-0.3905
0.8312,0.0601,-0.3397
0.7608,0.0641,-0.3085
0.671,0.0426,-0.3319
0.6847,0.0015,-0.4179
0.6847,-0.0238,-0.3905
0.6847,-0.0238,-0.3905
0.6534,-0.0101,-0.4022
0.6143,0.066,-0.3963
0.6299,0.1032,-0.4531
0.6456,0.1422,-0.5723
0.7022,0.1246,-0.6035
0.7022,0.1188,-0.6015
0.6085,0.0718,-0.6075
0.5694,0.1012,-0.6504
0.5713,0.109,-0.6621
0.542,0.0641,-0.6972
0.5733,0.0621,-0.7188
0.585,0.0621,-0.75
0.5987,0.0621,-0.752
0.6006,0.0601,-0.7286
0.6593,0.0269,-0.7579
0.7257,0.0387,-0.7559
0.7883,0.1422,-0.7226
0.9934,0.279,-0.5684
1.3686,0.3005,-0.7481
1.1947,0.0699,-0.9122
0.8136,0.0035,-0.6993
0.7687,0.0914,-0.6094
0.8449,0.1109,-0.5039
0.8898,0.0895,-0.4471
0.8488,0.0797,-0.3339
0.9113,0.1012,-0.3514
0.9269,0.1266,-0.3827
0.9641,0.0934,-0.3807
1.0051,0.0621,-0.3651
0.9504,0.0211,-0.3143
0.8859,-0.0159,-0.2908
0.8136,0.0015,-0.2694
0.7862,0.0289,-0.2771
0.8136,0.0191,-0.2889
0.8761,-0.0238,-0.2967
0.9054,-0.055,-0.2674
0.8898,-0.0629,-0.2752
0.8293,-0.0336,-0.242
0.798,-0.0648,-0.242
0.7921,-0.0667,-0.2479
0.7999,-0.0336,-0.2576
0.837,-0.0042,-0.2459
0.8996,-0.0921,-0.2694
0.8996,-0.0921,-0.2694
0.9113,-0.1351,-0.3339
0.9192,-0.182,-0.328
0.9387,-0.2055,-0.3085
0.9641,-0.1703,-0.2967
0.9641,-0.1703,-0.2967
0.884,-0.1762,-0.3104
0.8879,-0.1801,-0.3162
0.9348,-0.1859,-0.2811
0.9348,-0.1859,-0.2811
1.0168,-0.1547,-0.2752
1.095,-0.1254,-0.2792
1.1478,-0.0727,-0.2126
1.1595,-0.0823,-0.2205
1.1595,-0.0823,-0.2205
1.1341,-0.1235,-0.2303
1.2982,-0.0277,-0.2107
1.4175,-0.012,-0.2224
1.2377,0.0035,-0.2342
1.1008,0.068,-0.2205
1.0852,0.0758,-0.2224
1.0501,0.0934,-0.2792
1.1106,0.0797,-0.2694
1.0344,0.0641,-0.2244
0.9583,0.0367,-0.2694
0.9562,-0.014,-0.3534
0.9523,-0.0355,-0.3553
0.839,-0.0863,-0.4061
0.8136,-0.1117,-0.3847
0.837,-0.0003,-0.4003
0.9348,0.1598,-0.414
0.9269,0.2008,-0.3944
0.8214,0.1383,-0.3593
0.6456,0.0406,-0.4238
0.5792,-0.0238,-0.4003
0.5929,-0.0531,-0.4159
0.6143,-0.014,-0.4843
0.6476,0.0953,-0.4491
0.6046,0.1324,-0.4491
0.5733,0.1403,-0.498
0.5811,0.1226,-0.5312
0.6299,0.0778,-0.5996
0.671,0.109,-0.6465
0.6437,0.1598,-0.6856
0.5869,0.1794,-0.6914
0.5459,0.1266,-0.7305
0.6085,0.0308,-0.7871
0.6339,-0.0296,-0.8008
0.6046,-0.0257,-0.8048
0.6886,0.1403,-0.6328
0.6886,0.1403,-0.6328
1.2338,0.3317,-0.7774
1.6539,0.3317,-1.0216
1.0149,0.1696,-0.8536
0.6534,-0.0296,-0.582
0.7745,0.0621,-0.3847
0.9075,0.0953,-0.4159
1.0207,0.1344,-0.3495
0.9739,0.2224,-0.367
0.9113,0.1931,-0.3593
0.9192,0.1363,-0.3534
0.9641,0.0621,-0.3339
0.9719,0.0191,-0.3182
0.841,-0.0316,-0.2811
0.7765,0.0094,-0.2811
0.7785,0.025,-0.2987
0.8136,0.0464,-0.3202
0.8605,0.0191,-0.3124
0.8566,-0.0453,-0.2967
0.8156,-0.0667,-0.2889
0.8175,-0.0823,-0.2674
0.8156,-0.0746,-0.2654
0.8234,-0.0492,-0.2615
0.8253,-0.0257,-0.2517
0.8703,-0.0257,-0.2929
0.8801,-0.0375,-0.3045
0.9152,-0.0785,-0.3162
0.9348,-0.1254,-0.3202
0.9504,-0.1645,-0.3476
0.9562,-0.1722,-0.3495
0.9348,-0.1645,-0.326
0.8761,-0.1214,-0.326
0.8879,-0.1195,-0.3534
0.9171,-0.2133,-0.3006
0.9054,-0.1664,-0.2694
0.9192,-0.1547,-0.2635
1.013,-0.059,-0.2381
1.2063,-0.1137,-0.2186
1.2611,-0.143,-0.3456
1.308,-0.2211,-0.3378
1.4604,-0.0492,-0.242
1.4897,0.0855,-0.1814
1.3099,0.109,-0.1814
1.1243,0.1286,-0.201
1.0344,0.1246,-0.197
1.0188,0.1149,-0.2517
1.0852,0.0914,-0.1756
1.0559,0.0816,-0.1932
0.9953,0.0797,-0.2459
0.9699,0.0582,-0.2811
0.9152,0.0328,-0.3358
0.882,0.0054,-0.3085
0.9035,0.0073,-0.3612
0.9523,-0.0082,-0.4159
0.9621,0.0289,-0.4374
0.8312,0.0269,-0.3847
0.7238,0.0073,-0.3807
0.7061,-0.0238,-0.3924
0.6886,-0.0257,-0.4433
0.6984,-0.0257,-0.4648
0.6574,0.0152,-0.4433
0.5967,0.0464,-0.4374
0.5811,0.0836,-0.4394
0.585,0.1403,-0.4471
0.6183,0.1754,-0.498
0.6221,0.2243,-0.5723
0.6651,0.15,-0.6328
0.6749,0.0621,-0.7012
0.6749,-0.014,-0.7442
0.6593,-0.014,-0.7188
0.6104,0.0289,-0.7246
0.6241,0.0387,-0.6953
0.7003,0.0367,-0.7403
0.8195,0.0485,-0.752
1.2161,0.1871,-0.709
1.0911,0.2087,-0.8008
1.0911,0.2087,-0.8008
0.712,0.1579,-0.5468
0.6085,0.1246,-0.4706
0.884,0.1032,-0.4061
1.0012,0.0543,-0.3944
1.0012,0.0621,-0.371
1.0032,0.1032,-0.3807
0.9504,0.1266,-0.3182
0.9329,0.0836,-0.3143
0.9329,0.0836,-0.3143
0.9308,0.0562,-0.2869
0.8957,0.0348,-0.2908
0.8664,0.0231,-0.285
0.8547,0.0054,-0.2967
0.8547,0.0054,-0.2967
0.8312,-0.014,-0.2889
0.8214,-0.0257,-0.285
0.8234,-0.0609,-0.2498
0.7785,-0.0629,-0.2538
0.7745,-0.0629,-0.2538
0.8097,-0.0727,-0.2929
0.8214,-0.0394,-0.3299
0.8507,-0.1058,-0.2752
0.8996,-0.0981,-0.3065
0.9231,-0.1058,-0.2908
0.9231,-0.1312,-0.2929
0.9231,-0.1742,-0.2713
0.9602,-0.1703,-0.3221
0.9934,-0.2113,-0.2929
0.9934,-0.2113,-0.2929
1.0384,-0.1918,-0.2694
1.095,-0.1097,-0.3104
1.1536,-0.0062,-0.2361
1.2044,-0.0823,-0.2126
1.1497,-0.1351,-0.2929
1.2571,-0.2406,-0.2654
1.2729,-0.1957,-0.2224
1.3216,-0.0687,-0.1872
1.3451,0.0699,-0.1443
1.1672,0.1032,-0.1326
0.9778,0.1579,-0.199
0.9993,0.1754,-0.2869
1.0657,0.1207,-0.2068
0.9914,0.0739,-0.1189
0.9269,0.0171,-0.1541
0.9211,-0.0433,-0.1756
0.9269,-0.0609,-0.2263
0.9485,-0.0433,-0.2792
0.9562,-0.0042,-0.2967
0.9406,0.1051,-0.3006
0.9387,0.1481,-0.3162
0.884,0.1383,-0.2635
0.8136,0.0876,-0.2224
0.7355,0.0171,-0.2674
0.7277,-0.014,-0.3085
0.7608,0.0211,-0.3026
0.7823,0.0464,-0.3339
0.7785,0.0543,-0.3612
0.7745,0.0582,-0.3553
0.798,0.0718,-0.3456
0.7629,0.0778,-0.3749
0.7433,0.0523,-0.371
0.7198,0.0269,-0.3886
0.6847,0.0211,-0.4277
0.6886,0.0601,-0.4629
0.7061,0.0582,-0.4648
0.7159,0.0328,-0.498
0.7471,-0.0101,-0.5253
0.7902,-0.0355,-0.5449
0.8136,-0.0648,-0.5625
0.8116,-0.012,-0.5312
0.9171,0.0464,-0.5293
1.0715,0.1051,-0.58
0.8449,-0.0277,-0.6739
0.8449,-0.0277,-0.6739
0.6241,-0.1254,-0.7461
0.6026,-0.0629,-0.7735
1.2103,0.0464,-0.4491
1.4194,0.3885,-0.3319
1.007,0.2692,-0.3768
0.6944,0.1715,-0.373
0.8684,-0.0394,-0.2049
0.8684,-0.0394,-0.2049
1.0266,-0.0844,-0.1385
1.0676,0.0191,-0.1443
1.095,0.1403,-0.1483
0.8761,0.107,-0.2771
0.9739,0.0054,-0.4433
0.9739,0.0054,-0.4433
0.9739,0.0289,-0.3124
0.9465,0.0485,-0.197
0.9054,-0.0159,-0.2342
0.8332,-0.1039,-0.2929
0.8332,-0.1039,-0.2929
0.8644,-0.1176,-0.2987
0.9387,-0.0981,-0.2987
0.9562,-0.0902,-0.3045
0.9133,-0.0727,-0.3202
0.8761,-0.0883,-0.3143
0.8801,-0.0941,-0.3202
0.8938,-0.1097,-0.3104
0.8879,-0.1058,-0.3124
0.9308,-0.1019,-0.3065
0.9583,-0.0981,-0.2303
0.9641,-0.0921,-0.2244
0.9739,-0.1195,-0.1872
0.9719,-0.141,-0.197
0.9641,-0.1391,-0.2166
1.011,-0.1078,-0.2322
1.0247,-0.0746,-0.2596
1.2708,-0.1626,-0.244
1.2748,-0.2036,-0.2576
1.2513,-0.1879,-0.2049
1.1888,0.0328,-0.0975
1.1126,0.361,-0.0935
0.9895,0.4509,-0.2088
0.9015,0.3161,-0.203
0.9485,0.1012,-0.2303
1.0617,-0.0199,-0.2771
1.1419,-0.0473,-0.3534
1.095,-0.0473,-0.371
1.0032,-0.0336,-0.3593
0.9054,-0.0082,-0.373
0.8136,-0.0062,-0.4179
0.8156,0.0035,-0.3319
0.8097,0.0191,-0.3378
0.7862,0.0504,-0.3241
0.7725,0.0855,-0.3339
0.798,0.0992,-0.3299
0.7471,0.0699,-0.3553
0.714,0.0406,-0.3534
0.6964,0.0133,-0.3514
0.671,-0.0003,-0.3632
0.6553,-0.0394,-0.3651
0.6553,-0.0785,-0.3416
0.7589,-0.0062,-0.412
1.0032,0.0367,-0.5332
1.1516,-0.0238,-0.4511
1.0892,-0.0687,-0.5293
1.0559,-0.0863,-0.5409
0.8898,-0.1137,-0.5996
0.6495,-0.1351,-0.666
1.6988,0.0464,-0.6406
1.2904,0.4607,-0.373
1.2904,0.4607,-0.373
0.9914,0.2516,-0.3143
0.6339,-0.012,-0.2166
0.8175,0.0367,0.1585
0.8175,0.0367,0.1585
1.0168,0.1442,-0.031
1.0715,0.2868,-0.1404
0.9739,0.0797,-0.3416
0.7941,-0.1566,-0.4277
0.7941,-0.1566,-0.4277
0.968,-0.1859,-0.539
1.1458,-0.1,-0.4569
0.9758,0.0582,-0.2088
0.8293,-0.0785,-0.2538
0.8097,-0.0921,-0.2498
0.7745,-0.0257,-0.2674
0.8879,-0.0394,-0.3476
0.9797,-0.0473,-0.3378
0.8742,-0.0296,-0.2889
0.839,-0.0727,-0.1716
0.839,-0.0727,-0.1716
1.0032,-0.0863,-0.2948
1.0051,-0.0648,-0.2166
0.9562,-0.0316,-0.1932
0.9583,-0.096,-0.158
0.8488,-0.143,-0.1697
0.9465,-0.0413,-0.1033
0.9816,0.0718,-0.0681
1.0813,0.2106,-0.0994
1.2885,0.0797,-0.1131
1.2885,0.0876,-0.1267
1.1888,0.1168,-0.1111
1.1634,0.154,-0.1423
1.1048,0.1403,-0.1872
1.0344,0.0992,-0.1795
0.9641,0.1051,-0.2126
0.9269,0.0855,-0.2654
0.9699,0.0523,-0.3827
0.9075,0.0582,-0.3495
0.9641,0.1442,-0.3397
0.966,0.1207,-0.242
0.9035,0.0758,-0.2166
0.9465,0.0504,-0.2479
0.9192,0.0523,-0.2401
0.8078,0.1207,-0.2401
0.8039,0.1383,-0.2557
0.798,0.109,-0.2635
0.8273,0.0601,-0.3397
0.8547,0.1109,-0.3416
0.8664,0.0836,-0.3788
0.8684,0.0739,-0.3847
0.8996,0.0485,-0.3827
