accx,accy,accz
1.0051,0.0699,-0.242
0.9739,0.113,-0.2576
0.9641,0.107,-0.2811
0.9562,0.1168,-0.2557
0.9426,0.1168,-0.2752
0.9192,0.1226,-0.2752
0.8977,0.1012,-0.2635
0.9075,0.0308,-0.2635
0.966,-0.0042,-0.2361
0.8879,-0.0179,-0.203
0.8586,0.0094,-0.2792
0.8664,0.0426,-0.2908
0.9739,0.0191,-0.2733
1.0442,0.0191,-0.2967
1.0363,0.0171,-0.2713
0.9778,0.0289,-0.244
0.9113,0.0699,-0.2479
1.0168,0.0739,-0.2049
1.0168,0.0972,-0.2322
0.9836,0.1109,-0.2401
0.9485,0.0445,-0.199
0.9719,0.0231,-0.2244
0.9329,0.0855,-0.2244
0.9876,0.0934,-0.2322
1.0149,0.0504,-0.2733
1.007,0.0641,-0.2342
0.9192,0.0328,-0.244
1.181,-0.0746,-0.2654
0.9426,-0.0003,-0.3476
0.9914,-0.1528,-0.2596
1.0363,-0.0706,-0.3085
0.9171,-0.0804,-0.3045
0.9367,0.0582,-0.1502
0.8078,0.5037,0.0197
0.7492,0.2966,-0.244
0.9289,0.2145,-0.2576
0.9583,0.154,-0.2498
0.9192,0.1188,-0.2147
0.8312,0.2282,-0.2381
0.8684,0.2126,-0.1912
0.9329,0.1852,-0.1795
0.9914,0.1715,-0.1834
1.011,0.1794,-0.1716
0.9329,0.1657,-0.1678
0.9211,0.1461,-0.1541
0.9562,0.1207,-0.1716
1.011,0.0836,-0.1365
1.0324,0.0621,-0.1521
1.0735,0.0113,-0.1736
1.0657,-0.0277,-0.2107
1.0363,-0.0375,-0.199
1.0012,-0.055,-0.197
0.9641,0.0231,-0.1599
0.9953,0.0387,-0.203
1.013,0.0269,-0.199
0.9543,0.0289,-0.2713
0.839,0.0992,-0.0798
1.054,-0.0823,-0.1776
1.0461,-0.1019,-0.1345
0.9778,-0.0648,-0.1208
0.9015,-0.0473,-0.1814
0.9465,-0.059,-0.1756
1.0931,-0.1371,-0.2459
0.9856,-0.1176,-0.2381
1.009,-0.1117,-0.1893
0.9348,-0.1137,-0.1639
1.1634,-0.1645,-0.1619
1.0051,-0.0687,-0.1404
0.9192,0.0485,-0.0896
0.9445,-0.0003,-0.0954
1.138,-0.0765,-0.1385
1.1126,-0.055,-0.0838
1.0012,0.0485,-0.2068
1.0344,0.0718,-0.0486
1.0559,-0.0003,-0.1541
1.1986,-0.0101,-0.1736
1.0892,0.0855,-0.115
0.9192,0.3024,0.0822
1.1672,0.2145,-0.0896
0.884,0.3024,0.0451
0.8312,0.3357,-0.0505
0.7452,0.3377,-0.0857
0.755,0.2868,-0.1345
0.7608,0.2576,-0.1248
0.7804,0.2751,-0.1599
0.8859,0.2458,-0.1111
0.9719,0.2751,-0.115
0.9778,0.3259,-0.0877
0.9406,0.4295,-0.1052
0.8859,0.4549,-0.0975
0.9133,0.3787,-0.2147
0.8938,0.2536,-0.2517
0.8214,0.1852,-0.2929
0.8097,0.0464,-0.3866
1.0363,-0.1957,-0.3182
1.0598,-0.1664,-0.2635
1.1243,-0.0218,-0.2615
1.0051,0.1032,-0.2713
0.9387,0.109,-0.2654
0.8195,0.066,-0.2831
0.7883,0.0739,-0.2635
0.8742,0.0992,-0.2948
0.9367,0.0914,-0.2831
1.0247,0.1032,-0.2713
1.0911,0.068,-0.2381
0.9719,0.0406,-0.3456
0.8977,0.0406,-0.2948
0.9133,0.0504,-0.3182
0.9269,0.0582,-0.3045
0.9445,0.0328,-0.3162
0.968,0.0231,-0.3143
0.966,0.0289,-0.3124
0.9192,0.0367,-0.3202
0.8977,-0.0159,-0.3241
0.9445,-0.0296,-0.3241
0.9836,-0.0218,-0.3085
0.968,0.0015,-0.3026
0.9113,-0.0375,-0.3339
0.8977,-0.0511,-0.3456
0.8957,-0.0687,-0.3299
0.9739,-0.2524,-0.5116
0.8742,0.0582,-0.2596
1.0032,0.0035,-0.4022
1.0794,0.025,-0.2517
1.222,0.1149,-0.242
1.3178,0.2008,-0.244
1.3158,0.2145,-0.1834
1.0149,0.0876,-0.3299
0.7296,0.0876,-0.2284
0.712,0.0972,-0.1893
0.8859,0.0855,-0.1932
0.9972,0.1207,-0.1326
1.011,0.0699,-0.1052
0.8703,0.1324,-0.1306
0.8703,0.1324,-0.1306
0.9035,0.2106,-0.0954
0.9367,0.2418,-0.033
0.968,0.2145,-0.0212
0.9758,0.1891,-0.029
0.9953,0.1188,-0.0525
1.013,-0.014,-0.1013
1.013,-0.0453,-0.1951
1.0344,-0.0667,-0.1912
0.9739,-0.0336,-0.1229
0.966,0.0073,-0.0798
1.0384,0.0015,-0.1111
1.0344,-0.012,-0.1208
1.0032,-0.0257,-0.1345
0.9621,-0.0433,-0.1443
0.9504,-0.0629,-0.1385
0.9523,-0.0765,-0.1541
0.9758,-0.0804,-0.1619
1.0188,-0.0883,-0.1736
1.0403,-0.0804,-0.1385
1.0305,-0.0355,-0.1306
1.0384,-0.0375,-0.1306
1.0344,-0.055,-0.1267
1.0344,-0.0765,-0.1248
1.0969,-0.1097,-0.1423
1.2279,-0.0727,-0.1736
1.2611,-0.0569,-0.1599
1.2591,0.0073,-0.1834
1.2474,-0.0179,-0.2381
1.3549,-0.0336,-0.1169
1.4096,-0.0706,-0.0838
1.3588,-0.0101,-0.0349
1.2317,0.0523,0.006
0.9778,0.3279,0.0607
0.9543,0.3473,0.0373
0.9699,0.3279,0.0295
1.0032,0.2341,-0.033
0.9797,0.068,-0.029
0.9329,0.0836,-0.033
0.8273,0.1422,-0.0232
0.8273,0.1422,-0.0232
0.8019,0.1461,-0.0251
0.8058,0.109,-0.0838
0.837,0.0621,-0.1013
0.8312,0.0914,-0.1423
0.8273,0.0972,-0.1404
0.7999,0.1188,-0.1404
0.8468,0.1168,-0.1365
0.9133,0.1442,-0.1502
0.9113,0.15,-0.1639
0.9035,0.1579,-0.1872
0.8761,0.1207,-0.2088
0.8761,0.0895,-0.2615
0.9035,0.0543,-0.2694
0.8996,0.0582,-0.2752
0.8996,0.0582,-0.2752
0.9192,0.0816,-0.3397
0.9192,0.0758,-0.3572
0.9406,0.0523,-0.367
1.0696,0.0836,-0.2967
1.2063,0.1754,-0.2205
1.3725,0.32,-0.2088
1.3803,0.3533,-0.2126
1.2142,0.2048,-0.1658
1.0774,0.1403,-0.0701
1.007,0.1657,-0.033
1.0226,0.2087,0.0119
1.0501,0.2653,0.0647
1.0715,0.3063,0.0822
1.0715,0.2145,0.051
1.0324,0.1579,0.0119
0.9797,0.0992,-0.0368
0.9289,0.0406,-0.0505
0.8742,-0.0375,-0.1092
0.8625,-0.055,-0.1326
0.8097,-0.0062,-0.0994
0.8156,0.0133,-0.0681
0.8351,0.0171,-0.0447
0.8116,0.0113,-0.0075
0.8116,0.0113,-0.0075
0.8097,0.0191,-0.0095
0.8234,0.0094,-0.0036
0.8957,-0.0569,-0.0349
0.9562,-0.0804,-0.031
0.9562,-0.0804,-0.031
0.9953,-0.0492,-0.0368
1.052,-0.0238,-0.0388
1.0676,-0.0629,-0.0368
1.0911,-0.0629,-0.0544
1.0911,-0.0629,-0.0544
1.0911,-0.096,-0.1013
1.0735,-0.1235,-0.1131
1.0754,-0.1391,-0.1013
1.1224,-0.096,-0.0954
1.2552,-0.012,-0.0368
1.2552,-0.012,-0.0368
1.2885,-0.0413,-0.0817
1.2865,-0.0218,-0.0701
1.3119,0.0778,0.0803
1.3393,0.2712,0.1506
1.2357,0.3317,0.0901
1.0384,0.3103,-0.0368
0.9641,0.1871,-0.0466
0.9348,0.0445,-0.0681
0.9914,-0.014,-0.1776
0.9856,0.0035,-0.1462
0.9015,0.0543,-0.0954
0.8312,0.0621,-0.0466
0.7902,0.0485,-0.0349
0.796,0.0914,-0.0584
0.7999,0.1207,-0.0584
0.798,0.1305,-0.0661
0.7902,0.1032,-0.0877
0.7902,0.0718,-0.115
0.8293,0.0406,-0.156
0.843,0.0562,-0.1678
0.8625,0.0836,-0.1716
0.8859,0.0758,-0.1697
0.9348,0.0445,-0.2068
0.9367,0.0289,-0.2147
0.9583,0.0191,-0.2361
0.9583,0.0191,-0.2615
0.9171,0.0485,-0.2576
0.8801,0.0739,-0.2361
0.8917,0.0739,-0.2342
0.9289,0.068,-0.2576
0.9465,0.0464,-0.2694
0.9094,0.0562,-0.3202
0.9094,0.0562,-0.3202
0.9192,0.0523,-0.3319
0.9739,-0.0042,-0.3651
1.1399,-0.0746,-0.3866
1.5484,0.152,-0.2635
1.5484,0.152,-0.2635
1.7594,0.238,-0.3006
1.6441,0.236,-0.3065
1.0286,0.2087,-0.1423
0.8703,0.2458,-0.0407
0.8703,0.2458,-0.0407
0.8586,0.236,-0.0584
0.9602,0.1637,-0.0349
1.0168,0.1383,0.0119
0.9075,0.1403,0.0002
0.882,0.1344,-0.0075
0.7921,0.0876,-0.0603
0.7629,-0.0062,-0.0857
0.7745,-0.0296,-0.0994
0.7608,-0.0394,-0.0975
0.8097,-0.0336,-0.0623
0.8253,-0.012,-0.0525
0.8293,0.0094,-0.0544
0.841,0.0113,-0.0661
0.8703,-0.0218,-0.0896
0.884,-0.055,-0.1169
0.9485,-0.1235,-0.1521
0.9621,-0.1371,-0.1697
0.9778,-0.1312,-0.1697
1.009,-0.1097,-0.1502
1.0363,-0.0804,-0.1248
1.054,-0.0629,-0.1131
1.0696,-0.0746,-0.1267
1.0715,-0.0863,-0.1169
1.054,-0.0667,-0.0954
1.0579,-0.0413,-0.0798
1.1067,-0.0531,-0.0759
1.2161,-0.0746,-0.0642
1.3178,-0.0785,-0.072
1.3021,-0.0316,-0.074
1.3568,-0.0433,-0.0466
1.4252,0.0094,0.094
1.392,0.1012,0.1585
1.2513,0.2418,0.0705
1.0617,0.3024,-0.0095
0.9699,0.1813,-0.0447
0.9778,0.1617,-0.0505
1.0266,0.0582,-0.1169
0.9856,-0.0082,-0.1169
0.8625,0.1676,-0.0407
0.8625,0.1676,-0.0407
0.843,0.1891,-0.033
0.8214,0.2087,-0.0193
0.8039,0.1188,-0.0349
0.7629,0.0758,-0.0798
0.7589,0.0718,-0.1013
0.7648,0.0855,-0.1131
0.7804,0.1246,-0.1189
0.7902,0.1383,-0.1306
0.8019,0.1246,-0.1678
0.8996,0.0621,-0.197
0.8996,0.0621,-0.197
0.9075,0.0739,-0.2068
0.9367,0.0895,-0.2205
0.9778,0.0934,-0.2361
0.9211,0.0895,-0.2557
0.8723,0.0895,-0.2694
0.8449,0.1051,-0.2792
0.9015,0.0778,-0.2908
0.9445,0.0152,-0.3456
0.9445,0.0152,-0.3456
0.9641,-0.0355,-0.4179
0.966,-0.0511,-0.4413
1.0871,0.0231,-0.3436
1.6616,0.3473,-0.244
1.6616,0.3473,-0.244
1.4135,0.1344,-0.2811
1.0188,0.0445,-0.2224
0.8586,0.0054,-0.1423
1.0384,0.2048,-0.0388
1.0384,0.2048,-0.0388
1.1243,0.236,-0.0016
1.1321,0.2106,-0.0349
1.0833,0.1598,-0.0388
0.9914,0.1226,-0.0349
0.8468,0.0211,-0.0994
0.8039,-0.0355,-0.1423
0.7883,-0.0746,-0.1483
0.8078,-0.096,-0.1385
0.8078,-0.0433,-0.115
0.8058,-0.0101,-0.0975
0.8019,-0.012,-0.0603
0.7883,-0.0101,-0.0642
0.7921,-0.0082,-0.0564
0.796,-0.014,-0.0525
0.8586,-0.0511,-0.0954
0.9269,-0.0765,-0.1365
0.9816,-0.1097,-0.1483
0.9523,-0.1254,-0.1599
0.9797,-0.1117,-0.1521
0.9993,-0.1117,-0.1697
0.9953,-0.1137,-0.1716
1.0032,-0.1137,-0.158
1.0638,-0.1195,-0.1716
1.0754,-0.1254,-0.1795
1.1439,-0.141,-0.1443
1.2357,-0.1078,-0.0915
1.4115,-0.1019,-0.1033
1.4213,-0.1605,-0.1834
1.2962,-0.1918,-0.1697
1.2962,-0.1918,-0.1697
1.3725,0.1871,0.1429
1.3119,0.3298,0.1604
1.0598,0.3845,0.0451
0.8898,0.1598,-0.0368
0.8898,0.1598,-0.0368
0.9993,-0.0902,-0.1736
1.0363,-0.0687,-0.1658
0.9953,0.0543,-0.1033
0.9308,0.1403,-0.0544
0.9308,0.1403,-0.0544
0.8078,0.1109,-0.0915
0.755,0.025,-0.1287
0.7569,0.0015,-0.1541
0.7374,0.1266,-0.0975
0.7374,0.1266,-0.0975
0.7277,0.1246,-0.1092
0.7433,0.0641,-0.1716
0.7843,0.0171,-0.2361
0.8253,-0.0042,-0.2596
0.841,0.0269,-0.2459
0.8449,0.0836,-0.2303
0.8684,0.1168,-0.2381
0.9113,0.1051,-0.2948
0.9211,0.0485,-0.3572
0.9094,0.0445,-0.4257
0.9152,0.066,-0.4022
0.9719,0.0934,-0.3905
1.6245,0.2614,-0.2557
1.4096,0.3005,-0.3221
1.3353,0.2634,-0.3299
1.0892,0.1754,-0.2929
1.0266,0.0485,-0.1229
1.0032,0.0972,-0.0036
1.0032,0.0972,-0.0036
1.0617,0.0934,-0.0212
1.1087,0.0601,-0.0407
1.052,0.0113,-0.0994
0.8625,-0.0394,-0.1229
0.8625,-0.0394,-0.1229
0.8195,-0.0746,-0.1248
0.7823,-0.0921,-0.1345
0.8078,-0.0179,-0.1111
0.8527,0.0543,-0.0173
0.8527,0.0543,-0.0173
0.8664,0.0543,-0.0016
0.8449,-0.0336,-0.0368
0.8625,-0.0629,-0.0251
0.9094,-0.0648,-0.031
0.9406,-0.059,-0.0349
0.9602,-0.0511,-0.0486
0.9719,-0.0667,-0.0623
1.0012,-0.0902,-0.074
1.007,-0.1039,-0.0681
1.007,-0.1039,-0.0681
0.9972,-0.0511,-0.0407
0.9953,-0.0375,-0.0466
1.0384,-0.0101,-0.0896
1.1029,-0.0336,-0.1033
1.2044,-0.1195,-0.0544
1.0579,-0.0531,-0.2401
1.1693,-0.1782,-0.156
1.306,-0.1,-0.0896
1.476,0.0876,0.1135
1.3842,0.3024,0.0882
1.1419,0.3063,0.0842
0.9895,0.2204,0.0607
0.9641,0.152,0.0491
0.9934,0.0876,-0.0486
1.0579,0.0328,-0.0701
1.0676,0.0504,-0.0701
0.9856,0.0934,-0.0427
0.8996,0.109,-0.0388
0.8136,0.0876,-0.0486
0.7804,-0.0042,-0.0642
0.7725,-0.0355,-0.0798
0.7394,-0.0238,-0.0994
0.7745,0.0992,-0.0817
0.798,0.1226,-0.0877
0.8019,0.1305,-0.0935
0.8195,0.1305,-0.1169
0.8273,0.0934,-0.1502
0.8468,0.0562,-0.1834
0.9152,0.0445,-0.1736
0.9289,0.0485,-0.1776
0.9367,0.0758,-0.1716
0.9739,0.068,-0.2517
0.9993,0.0211,-0.2713
0.9445,0.0171,-0.3241
0.9171,0.0211,-0.3436
0.884,0.0015,-0.3807
1.0871,-0.1351,-0.455
1.5034,0.1931,-0.0954
1.5034,0.1931,-0.0954
1.7203,0.3631,-0.1287
1.3216,0.2497,-0.2263
0.8938,0.109,-0.115
0.7629,0.0445,-0.0544
0.9054,0.1559,-0.0232
0.9054,0.1559,-0.0232
1.1576,0.1794,0.0041
1.1439,0.1305,-0.0153
0.9895,0.0934,-0.0193
0.798,0.0094,-0.0935
0.798,0.0094,-0.0935
0.8136,-0.0804,-0.1092
0.841,-0.1137,-0.1208
0.8801,-0.0511,-0.0877
0.843,0.0718,0.0276
0.843,0.0718,0.0276
0.7999,0.109,-0.0016
0.7902,0.0739,0.0041
0.7843,-0.0433,0.0021
0.8312,-0.0941,-0.029
0.8312,-0.0941,-0.029
0.8781,-0.0804,-0.029
0.9465,-0.0648,-0.0056
1.0168,-0.0394,0.008
1.0969,-0.0218,-0.0251
1.1478,-0.1117,-0.0525
1.1868,-0.1391,-0.0603
1.222,-0.1371,-0.0857
1.3002,-0.0101,-0.1776
1.3002,-0.0101,-0.1776
1.2611,-0.0003,-0.1423
1.2357,0.0699,-0.0623
1.22,0.3181,0.1174
1.1478,0.279,0.0549
1.1478,0.279,0.0549
1.0579,0.2262,0.0216
0.966,0.1109,-0.033
0.9133,-0.0218,-0.1541
0.9895,-0.0531,-0.1365
0.8723,0.066,-0.0681
0.8723,0.066,-0.0681
0.8468,0.0543,-0.0427
0.8273,0.0406,-0.0486
0.7902,0.0191,-0.0603
0.7452,0.0543,-0.033
0.7452,0.0543,-0.033
0.7492,0.0876,-0.0388
0.7687,0.0934,-0.0486
0.8293,0.0972,-0.0759
0.882,0.0582,-0.1189
0.882,0.0582,-0.1189
0.8879,0.0073,-0.1599
0.8566,-0.0199,-0.203
0.8293,-0.0394,-0.2342
0.8273,-0.0844,-0.2498
0.8332,-0.1019,-0.2752
0.8332,-0.1019,-0.285
0.839,-0.0804,-0.3162
0.8547,-0.0609,-0.367
0.9015,-0.059,-0.3319
0.9895,0.0015,-0.2674
1.0657,0.0504,-0.2987
1.0911,-0.0159,-0.3241
1.0931,-0.0765,-0.3612
1.222,-0.1468,-0.4394
1.4291,-0.1449,-0.2771
1.5268,-0.0375,-0.242
1.2044,0.0641,0.0334
1.2845,0.3748,-0.0798
0.7745,0.0367,-0.3221
0.6964,-0.1605,-0.158
0.7921,-0.2465,-0.1541
1.0715,0.1109,0.0705
1.0715,0.1109,0.0705
1.0188,0.2224,0.0237
0.9171,0.191,-0.027
0.8097,0.0152,-0.0779
0.8468,-0.0785,-0.0954
0.8586,-0.0883,-0.0975
0.9075,-0.1312,-0.1111
0.9329,-0.0706,-0.1013
0.9485,-0.0453,-0.0817
0.9816,-0.0453,-0.0817
0.9485,-0.0511,-0.0954
0.9485,-0.0511,-0.0954
0.9406,-0.0569,-0.1111
0.9348,-0.0667,-0.1111
0.9367,-0.0804,-0.1013
0.9543,-0.0883,-0.0798
0.9739,-0.1391,-0.1208
0.9856,-0.1703,-0.1462
0.9778,-0.1859,-0.1619
0.9621,-0.2231,-0.2244
0.9543,-0.2681,-0.2654
0.9972,-0.2797,-0.2381
1.011,-0.2133,-0.2263
1.0384,-0.1312,-0.2107
1.2084,0.0992,-0.1776
1.2611,0.1109,-0.3006
1.1556,-0.2309,-0.0427
1.1302,-0.0981,0.0764
1.0638,0.3494,0.217
1.1634,0.5154,-0.0349
1.3549,-0.1078,-0.2967
1.3549,-0.1078,-0.2967
0.8781,-0.2036,-0.2498
0.8039,-0.1332,-0.3026
0.9504,0.0328,-0.158
0.8957,0.0739,-0.1521
0.8957,0.0739,-0.1521
0.8957,0.0797,-0.1697
0.9035,0.0953,-0.1872
0.8566,0.0914,-0.1716
0.8468,0.0367,-0.197
0.8468,0.0367,-0.197
0.8742,0.0328,-0.2088
0.9583,0.0464,-0.201
0.9758,0.0289,-0.2459
0.9152,-0.059,-0.3534
0.8957,-0.0785,-0.3572
0.8468,-0.1391,-0.3651
0.882,-0.059,-0.2811
0.9641,-0.0277,-0.3045
0.9797,-0.0277,-0.3162
1.0168,-0.0492,-0.3514
1.0051,-0.096,-0.4217
0.9993,-0.1156,-0.4335
1.138,-0.0257,-0.3104
1.3823,0.0855,-0.2147
1.4291,0.1637,-0.1208
1.3412,0.238,-0.033
1.2005,0.1676,-0.027
1.1907,0.1833,0.0373
0.968,0.2888,-0.033
0.7217,0.2008,-0.1287
0.6065,0.0718,-0.1541
0.7413,-0.0823,-0.201
0.966,-0.0433,-0.1853
0.966,-0.0433,-0.1853
0.8644,0.1617,-0.1385
0.8527,0.1813,-0.0779
0.9797,0.15,-0.0759
1.2513,0.0778,-0.1345
1.2513,0.0778,-0.1345
1.1888,0.0231,-0.197
1.0911,-0.0179,-0.201
0.9797,0.0094,-0.1658
0.9269,0.0621,-0.0838
0.9856,0.0914,-0.0427
0.9816,0.0855,-0.0349
0.9562,0.0601,-0.027
0.9269,0.0523,-0.0407
0.9015,-0.0003,-0.0954
0.8859,-0.0336,-0.0954
0.8644,-0.0336,-0.072
0.8605,-0.0218,-0.0877
0.9015,-0.0823,-0.1092
0.9387,-0.0941,-0.1033
0.9523,-0.0902,-0.1033
0.9876,-0.0453,-0.1013
1.0696,-0.1078,-0.1365
1.0989,-0.1801,-0.197
1.1262,-0.1879,-0.199
1.1262,-0.1879,-0.199
1.1302,-0.1,-0.1385
1.2122,-0.0433,-0.1483
1.3725,-0.0609,-0.0427
1.5053,0.0073,0.1155
1.4623,0.0816,0.176
1.1106,0.3631,0.0628
1.0754,0.2927,0.0197
1.0598,0.1735,-0.029
1.0598,0.0562,-0.0661
1.0638,0.0211,-0.0915
1.1087,0.0445,-0.0857
1.0032,0.068,-0.0681
0.8664,0.0934,-0.0564
0.7355,0.1109,-0.0623
0.7355,0.1109,-0.0623
0.7706,0.0387,-0.0817
0.8019,0.0015,-0.0779
0.7999,0.0231,-0.0896
0.796,0.0231,-0.1189
0.796,0.0231,-0.1189
0.8058,0.0035,-0.1306
0.8253,0.0328,-0.158
0.8507,0.0718,-0.1756
0.9562,0.0269,-0.1893
0.9562,0.0269,-0.1893
0.9641,0.0231,-0.2186
0.9602,0.0876,-0.2342
0.968,0.1032,-0.2674
0.9739,-0.0042,-0.371
0.9895,-0.0687,-0.4217
1.0403,-0.0785,-0.3866
1.0657,-0.0042,-0.3827
1.4428,0.1794,-0.0857
1.3784,0.3787,-0.0857
1.0442,0.2614,-0.0505
0.9054,0.1754,-0.0388
0.9426,0.1012,-0.0056
1.1008,0.0464,0.008
1.1576,0.0523,-0.027
1.1576,0.0523,-0.027
1.1282,0.0601,-0.033
0.839,0.0211,-0.0564
0.7335,-0.0687,-0.1033
0.7335,-0.0687,-0.1033
0.7531,-0.0629,-0.1131
0.8019,-0.0355,-0.0994
0.8468,0.0133,-0.0486
0.843,0.0113,-0.0407
0.7843,-0.0413,-0.0232
0.7667,-0.0609,-0.0368
0.7843,-0.0844,-0.0427
0.9035,-0.0569,-0.0407
0.9778,-0.0844,-0.0505
0.9778,-0.0844,-0.0505
0.9993,-0.1117,-0.0368
1.052,-0.096,0.0002
1.1458,-0.0823,-0.027
1.2142,-0.1351,-0.0525
1.2338,-0.1391,-0.0642
1.2338,-0.1391,-0.0642
1.2513,-0.1137,-0.0603
1.3021,-0.1235,-0.0642
1.2279,-0.0883,-0.0407
1.1614,0.0231,-0.0661
1.2708,0.2849,0.2053
1.2943,0.4314,0.1916
1.1536,0.4861,0.0861
1.0032,0.3259,-0.0134
0.9465,0.1363,-0.0681
1.0715,-0.1039,-0.1658
1.1165,-0.0765,-0.1834
1.0598,-0.0003,-0.1521
0.968,0.0895,-0.0584
0.884,0.1481,-0.0388
0.8527,0.1383,-0.0505
0.8097,0.1149,-0.0603
0.7725,0.0953,-0.0838
0.7003,0.0699,-0.0915
0.6476,0.0171,-0.1345
0.6788,-0.014,-0.158
0.7471,-0.0257,-0.1502
0.8116,0.0485,-0.1912
0.8664,0.1461,-0.2107
0.9152,0.113,-0.1697
0.9543,0.0562,-0.158
0.8898,0.0739,-0.2361
0.9015,0.0621,-0.3476
0.9094,-0.0765,-0.4608
0.9094,-0.0765,-0.4608
0.9308,-0.0785,-0.5136
0.9621,-0.1,-0.5332
1.0774,0.1422,-0.242
1.7925,0.408,-0.2361
1.7925,0.408,-0.2361
1.095,0.1931,-0.1483
0.7999,0.107,-0.1092
0.8507,0.0464,-0.0896
1.0911,0.0699,-0.0153
1.1576,0.0914,-0.0349
1.1966,0.1149,-0.0564
1.136,0.1149,-0.0564
0.9445,0.0562,-0.0877
0.8175,-0.0277,-0.1326
0.7843,-0.1019,-0.1306
0.7823,-0.1312,-0.1502
0.7941,-0.096,-0.1483
0.8175,0.0211,-0.0759
0.8019,0.0739,-0.031
0.8156,0.0464,-0.033
0.8234,-0.0062,-0.0564
0.8507,-0.1235,-0.0896
0.8859,-0.1273,-0.1267
0.8859,-0.1273,-0.1267
0.9035,-0.1528,-0.1111
0.9758,-0.1605,-0.0935
1.0871,-0.1214,-0.0877
1.1126,-0.1235,-0.0838
1.1145,-0.1254,-0.0798
1.1458,-0.1273,-0.0661
1.2377,-0.1235,-0.0212
1.3275,-0.1254,-0.1131
1.3373,-0.182,-0.1326
1.3236,0.0464,0.0705
1.4175,0.2555,0.1467
1.3353,0.3454,0.1429
1.1204,0.3415,0.0373
0.9583,0.2106,-0.0505
0.9329,0.0523,-0.1404
0.9329,0.0523,-0.1404
1.1165,-0.0296,-0.1853
1.1341,0.0113,-0.156
1.0617,0.0778,-0.1287
0.9308,0.0992,-0.0798
0.7902,0.0426,-0.1052
0.7823,0.0328,-0.1169
0.7433,0.0094,-0.1229
0.7296,0.0015,-0.0975
0.7003,0.0308,-0.0877
0.7589,0.0934,-0.1229
0.798,0.0972,-0.1404
0.8488,0.0699,-0.1697
0.8488,0.0348,-0.1697
0.8332,-0.0062,-0.1814
0.9094,0.0113,-0.2126
0.9035,0.0582,-0.2205
0.9113,0.0895,-0.2361
0.9778,0.0797,-0.244
0.9133,0.0464,-0.285
0.8859,0.0171,-0.3182
0.8488,-0.0413,-0.3847
0.843,-0.0727,-0.4569
0.8625,-0.1449,-0.4921
1.1341,-0.0277,-0.4217
1.2279,0.0348,-0.328
1.5014,0.195,-0.2381
1.3197,0.2087,-0.2303
1.3197,0.2087,-0.2303
0.9719,0.107,-0.1345
0.9075,0.0992,-0.0935
0.882,0.1207,-0.0407
1.1145,0.0758,-0.0251
1.1556,0.0426,-0.0368
1.1556,0.0426,-0.0368
1.0247,0.025,-0.0759
0.9054,0.0015,-0.1092
0.7452,-0.1293,-0.1423
0.7452,-0.1097,-0.1229
0.7452,-0.1097,-0.1229
0.7745,-0.0648,-0.0603
0.796,0.0231,-0.033
0.8058,0.0699,-0.0388
0.7745,-0.0569,-0.0368
0.7706,-0.0844,-0.0388
0.7902,-0.1684,-0.072
0.9485,-0.1508,-0.1248
1.013,-0.1137,-0.1131
1.0501,-0.0765,-0.0779
1.138,-0.0511,-0.0544
1.1927,-0.0648,-0.0623
1.2317,-0.1097,-0.0427
1.2533,-0.1273,-0.0584
1.3021,-0.1801,-0.0661
1.3021,-0.0941,0.1115
1.3666,0.0836,-0.0016
1.3842,0.2341,0.1272
1.4135,0.3357,0.2561
1.1399,0.4197,0.0882
0.9348,0.1481,-0.033
0.9348,0.1481,-0.033
1.0226,-0.0883,-0.0935
1.1048,-0.0667,-0.156
1.1576,0.0073,-0.1071
1.0715,0.1266,-0.027
0.8977,0.1931,0.0119
0.8136,0.1637,-0.0016
0.7608,0.0934,-0.027
0.7277,0.0191,-0.0486
0.673,0.0543,-0.0642
0.6397,0.068,-0.0642
0.6612,0.066,-0.0975
0.712,0.068,-0.1404
0.8116,0.0543,-0.1678
0.8917,0.025,-0.2126
0.8898,0.0445,-0.201
0.8996,0.0778,-0.2263
0.9426,0.0582,-0.2694
0.9406,0.0367,-0.3768
0.9406,0.0367,-0.3768
0.9133,-0.0277,-0.4413
0.9583,-0.0082,-0.4354
0.9583,-0.0082,-0.4354
1.181,0.0035,-0.3104
1.7652,0.2048,-0.3378
1.4878,0.1852,-0.2361
0.9583,0.1617,-0.1229
1.052,0.1559,-0.0603
0.9816,0.15,-0.029
0.9816,0.15,-0.029
1.0032,0.113,-0.0368
1.0344,0.0601,-0.0584
0.9876,-0.012,-0.0427
0.8625,-0.0765,-0.1092
0.8547,-0.0863,-0.1111
0.8332,-0.0941,-0.115
0.8175,-0.0844,-0.1131
0.8234,-0.0473,-0.0857
