accx,accy,accz
0.714,-0.0941,-0.3905
0.7355,-0.0863,-0.4159
0.8039,-0.0804,-0.4159
0.884,-0.0394,-0.3827
0.8781,-0.0823,-0.369
0.841,-0.0804,-0.3593
0.843,-0.0511,-0.3534
0.9075,0.0035,-0.3397
0.9543,-0.0355,-0.3827
0.9133,-0.0785,-0.412
0.837,-0.0765,-0.455
0.839,-0.0433,-0.4003
0.843,-0.2015,-0.4823
0.8801,-0.1899,-0.41
1.0501,-0.0336,-0.4061
1.4115,0.1852,-0.3162
1.562,0.277,-0.0877
1.0833,-0.0804,-0.1658
0.9231,-0.2192,-0.2068
0.8703,-0.2914,-0.2811
1.0012,-0.3051,-0.3514
1.1693,-0.2934,-0.3768
1.2357,-0.2641,-0.3514
1.1672,-0.2036,-0.2342
1.0598,-0.1645,-0.2322
0.8761,-0.1176,-0.1776
0.8097,-0.1019,-0.1483
0.7921,-0.0531,-0.2126
0.925,-0.0453,-0.2596
1.0617,-0.0727,-0.1932
1.0403,-0.0941,-0.1483
0.9192,-0.1859,-0.1795
0.8527,-0.1918,-0.1853
0.8019,-0.1782,-0.2284
0.8527,-0.1468,-0.244
0.9348,-0.1488,-0.2205
0.9152,-0.2133,-0.2967
0.7765,-0.1996,-0.2771
0.7355,-0.1762,-0.203
0.7296,-0.1508,-0.1639
0.8468,-0.0746,-0.242
0.9094,-0.0706,-0.3162
0.8332,-0.0727,-0.2342
0.8644,-0.0727,-0.2733
0.8664,-0.0981,-0.2733
0.8136,-0.1351,-0.2694
0.7492,-0.1488,-0.3045
0.7394,-0.182,-0.3339
0.837,-0.0687,-0.2908
0.9856,0.0073,-0.3534
1.3412,0.0582,-0.5156
1.3412,0.0582,-0.5156
1.5132,0.0797,-0.5527
1.2806,-0.0413,-0.6133
1.2767,0.0914,-0.6328
1.5014,0.1207,-0.5859
1.4135,0.0972,-0.5723
0.9719,0.0855,-0.5293
0.7804,-0.0355,-0.4061
0.8214,-0.0179,-0.3807
0.8586,-0.0082,-0.3905
0.882,0.025,-0.4003
0.8039,-0.012,-0.371
0.7257,-0.0159,-0.3436
0.6944,-0.0218,-0.328
0.6651,-0.0277,-0.3241
0.6124,-0.0844,-0.3807
0.5831,-0.1039,-0.4374
0.5713,-0.0844,-0.4491
0.6221,-0.0316,-0.41
0.6514,0.0035,-0.412
0.6964,-0.0062,-0.3553
0.673,0.0035,-0.3241
0.6866,0.0035,-0.2869
0.8449,-0.0082,-0.2576
0.8605,0.0015,-0.3085
0.7823,-0.141,-0.371
0.7745,-0.1801,-0.3886
0.843,-0.1371,-0.4335
0.9758,-0.1488,-0.4941
1.1672,-0.0706,-0.5136
1.4311,0.1207,-0.4804
1.734,0.2321,-0.3984
1.4623,0.2712,-0.1736
1.2669,0.0094,-0.285
1.6695,-0.3305,-0.2361
0.9367,-0.2974,-0.4471
0.6221,-0.3736,-0.4531
0.7413,-0.3442,-0.3788
1.0226,-0.012,-0.2752
1.3432,0.068,-0.3104
1.1556,0.0133,-0.2615
0.9543,-0.1449,-0.2244
0.8684,-0.229,-0.3241
0.7725,-0.1976,-0.2987
0.7862,-0.1,-0.2576
0.8058,-0.0902,-0.2498
0.8781,-0.0823,-0.242
0.9054,-0.1312,-0.2401
0.9035,-0.1468,-0.2674
0.8781,-0.1488,-0.2576
0.8781,-0.1508,-0.2479
0.837,-0.141,-0.203
0.7883,-0.096,-0.242
0.8097,-0.0823,-0.2303
0.8234,-0.0902,-0.2205
0.8273,-0.0941,-0.2263
0.8136,-0.096,-0.2263
0.839,-0.1293,-0.2557
0.9075,-0.1195,-0.2615
0.9485,-0.1,-0.285
0.9387,-0.0981,-0.2948
0.7843,-0.1528,-0.3202
0.7452,-0.1645,-0.3026
0.7198,-0.1449,-0.3495
0.7531,-0.1547,-0.3124
0.8312,-0.0413,-0.3984
1.2396,0.0895,-0.3984
1.394,0.0328,-0.3514
1.2494,0.0191,-0.414
1.3021,0.2126,-0.4745
1.3588,0.2243,-0.4765
1.3979,0.1344,-0.625
1.1262,-0.012,-0.5547
0.8273,-0.0687,-0.4589
0.8019,-0.1137,-0.455
0.8293,-0.1156,-0.5018
0.9015,-0.0863,-0.498
0.9308,0.0348,-0.4511
0.9035,0.109,-0.412
0.8156,0.1344,-0.373
0.7823,0.1188,-0.3456
0.7589,0.0485,-0.3378
0.6495,-0.0453,-0.3651
0.5655,-0.0746,-0.4003
0.5615,-0.0823,-0.4061
0.5615,-0.0609,-0.4257
0.5831,-0.059,-0.4159
0.628,-0.055,-0.4179
0.6456,-0.0159,-0.3416
0.6358,-0.0199,-0.3416
0.671,-0.0648,-0.2674
0.7471,-0.059,-0.242
0.8527,0.0211,-0.3202
0.9035,0.0699,-0.3358
0.8586,0.0289,-0.3534
0.8332,-0.0823,-0.4725
0.9171,-0.1195,-0.5409
1.2063,-0.012,-0.5507
1.2063,-0.012,-0.5507
1.519,0.2048,-0.1872
1.3314,0.3552,-0.2576
1.4135,0.1246,-0.2186
1.7242,-0.2504,-0.2538
1.3178,-0.4106,-0.328
0.7081,-0.3715,-0.3847
0.6534,-0.3324,-0.328
0.7277,-0.1214,-0.2224
1.1262,0.113,-0.2166
1.2357,0.1246,-0.1795
1.0051,-0.0727,-0.1326
0.8761,-0.2309,-0.2126
0.7941,-0.2465,-0.2615
0.7569,-0.1976,-0.2498
0.9406,-0.0238,-0.1502
0.9406,-0.0238,-0.1502
0.9348,-0.0433,-0.2107
0.884,-0.1312,-0.2674
0.8801,-0.1664,-0.2948
0.8801,-0.1938,-0.285
0.8566,-0.1899,-0.2752
0.8175,-0.1801,-0.2908
0.7999,-0.1488,-0.373
0.8879,-0.1293,-0.3514
0.9231,-0.1176,-0.2615
0.8664,-0.1176,-0.2205
0.7765,-0.1176,-0.1814
0.7296,-0.1,-0.1853
0.8195,-0.0473,-0.2752
0.7608,-0.1019,-0.2967
0.7608,-0.1019,-0.2967
0.673,-0.1078,-0.2792
0.7511,-0.0433,-0.3299
0.841,0.0054,-0.3162
1.0442,0.0699,-0.2498
1.0833,0.0543,-0.2831
1.2571,-0.055,-0.3319
1.4858,-0.1058,-0.5507
1.5463,0.107,-0.668
1.4643,0.2126,-0.4491
1.4252,0.2185,-0.41
0.9113,0.1715,-0.5175
0.8195,0.0621,-0.5488
0.8527,-0.0844,-0.5761
0.9836,-0.1957,-0.5859
0.9836,-0.1957,-0.5859
0.9152,-0.1039,-0.5449
0.8723,0.0464,-0.4569
0.8136,0.0895,-0.3963
0.6534,0.0699,-0.3632
0.6183,0.0562,-0.373
0.5889,0.0464,-0.3847
0.5733,0.0171,-0.3514
0.5635,-0.0355,-0.2869
0.5694,-0.0453,-0.3905
0.5694,-0.0453,-0.3905
0.6085,-0.0316,-0.3768
0.6632,-0.0003,-0.3651
0.7999,0.0015,-0.2674
0.9426,0.0289,-0.3632
0.9856,0.0015,-0.3612
0.9641,-0.0355,-0.3924
0.7902,-0.0863,-0.3788
0.7315,-0.1391,-0.3612
0.7902,-0.225,-0.3847
0.9094,-0.1391,-0.5175
1.1712,-0.0433,-0.4667
1.5835,0.0348,-0.4277
1.2259,0.1735,-0.2615
0.966,0.0562,-0.1834
1.1419,-0.0433,-0.2088
1.4702,-0.0823,-0.2401
1.7046,-0.0921,-0.3397
1.0188,-0.2055,-0.3886
0.7862,-0.2015,-0.328
0.837,-0.1371,-0.2967
0.9171,-0.0844,-0.2869
0.9406,0.025,-0.1795
0.9387,-0.0727,-0.2674
0.9387,-0.0727,-0.2674
0.9523,-0.0844,-0.2596
0.9523,-0.0727,-0.2166
0.8996,-0.0687,-0.1756
0.8312,-0.1097,-0.1423
0.841,-0.141,-0.1716
0.8156,-0.1528,-0.1893
0.8351,-0.1918,-0.2557
0.9211,-0.1801,-0.2479
0.8058,-0.0863,-0.2361
0.8058,-0.0863,-0.2361
0.7374,-0.0413,-0.1912
0.7394,0.0171,-0.244
0.8644,-0.0394,-0.1932
0.9406,-0.0844,-0.3104
0.9269,-0.1214,-0.3378
0.7511,-0.2367,-0.3104
0.7355,-0.2329,-0.2538
0.8039,-0.0746,-0.3299
0.9426,0.0406,-0.2869
0.9758,0.1032,-0.4569
1.1947,0.0152,-0.4315
1.2845,-0.0511,-0.4335
1.2729,-0.0336,-0.496
1.2611,0.0641,-0.4159
1.2533,0.0816,-0.4335
1.3139,0.2595,-0.5742
1.4545,0.1676,-0.5566
1.222,0.1207,-0.582
0.9367,0.0073,-0.4902
0.7785,-0.0394,-0.4217
0.7452,-0.0473,-0.4257
0.7725,-0.0648,-0.4511
0.7862,-0.0687,-0.4687
0.7804,-0.0023,-0.4823
0.7492,0.0601,-0.4433
0.6866,0.0543,-0.4042
0.6221,0.0211,-0.3807
0.5576,-0.0433,-0.3866
0.5459,-0.1097,-0.367
0.542,-0.0609,-0.4238
0.5792,0.025,-0.455
0.6534,0.107,-0.4217
0.7629,0.1696,-0.4179
0.8507,0.0015,-0.2831
0.7843,-0.0453,-0.3221
0.8039,-0.141,-0.2929
0.8156,-0.1351,-0.3436
0.7902,-0.1899,-0.3905
0.8019,-0.1879,-0.455
0.8527,-0.2426,-0.4217
0.9015,-0.1996,-0.5449
1.4839,0.0718,-0.3339
1.5952,0.195,-0.1013
1.3158,0.2224,-0.1521
1.0715,0.0992,-0.1872
1.1927,-0.1137,-0.2869
1.5366,-0.3149,-0.3553
0.9914,-0.3071,-0.4511
0.9054,-0.313,-0.4315
0.9993,-0.2192,-0.3905
0.9758,-0.0296,-0.2752
1.0305,0.0523,-0.2068
0.8996,-0.1312,-0.2126
0.8996,-0.1312,-0.2126
0.843,-0.2231,-0.2538
0.8156,-0.1782,-0.2557
0.8078,-0.1195,-0.2244
0.8058,-0.1176,-0.197
0.7941,-0.1449,-0.2538
0.9152,-0.1586,-0.2596
0.9543,-0.1528,-0.2557
0.8957,-0.1664,-0.2381
0.7804,-0.1801,-0.2166
0.6299,-0.055,-0.1893
0.6299,-0.055,-0.1893
0.7315,-0.0511,-0.2088
0.8547,-0.0844,-0.197
0.9133,-0.1273,-0.2517
0.8586,-0.143,-0.2635
0.7862,-0.1801,-0.2517
0.6847,-0.1293,-0.3006
0.6241,-0.0394,-0.2908
0.6866,0.1481,-0.3182
1.009,0.1559,-0.3299
1.4057,-0.0785,-0.5195
1.5249,-0.1351,-0.6465
1.5268,0.066,-0.6387
1.605,0.1735,-0.5605
1.177,0.1617,-0.537
1.0852,0.1305,-0.537
0.8449,0.0543,-0.5703
0.7629,-0.0003,-0.5663
0.8019,-0.1097,-0.5449
0.8917,-0.1117,-0.5116
0.8917,-0.1117,-0.5116
0.8332,-0.0569,-0.4531
0.6553,0.0406,-0.373
0.5967,-0.0179,-0.3319
0.5967,-0.0179,-0.3319
0.5929,-0.0199,-0.3397
0.6241,0.0015,-0.4277
0.6749,0.0191,-0.4785
0.7238,-0.0804,-0.4667
0.7238,-0.0804,-0.4667
0.7159,-0.0883,-0.4725
0.9308,-0.0609,-0.4217
1.0989,0.068,-0.4511
1.0989,0.068,-0.4511
0.9836,0.0621,-0.4471
0.8742,0.0152,-0.5312
0.7081,-0.1449,-0.713
1.0051,-0.1078,-0.1326
1.1145,-0.0706,-0.0975
1.2084,-0.0257,-0.074
1.4135,0.1989,0.1369
1.0989,0.1363,0.0647
1.0422,-0.0921,-0.0954
1.4936,-0.0394,-0.2498
1.7417,-0.0453,-0.3319
1.3763,-0.0082,-0.3221
1.1576,0.0073,-0.1697
1.0598,0.0523,-0.2147
0.9367,-0.0394,-0.2342
0.839,-0.0804,-0.2342
0.7569,-0.1039,-0.1834
0.7394,-0.1351,-0.1736
0.7629,-0.1859,-0.2342
0.7687,-0.1312,-0.2517
0.7648,-0.1176,-0.2538
0.8019,-0.1019,-0.2126
0.8273,-0.1137,-0.2498
0.8703,-0.1351,-0.2948
0.968,-0.1332,-0.3124
0.966,-0.1332,-0.2674
0.9621,-0.182,-0.1776
0.9583,-0.311,-0.3065
0.9504,-0.2172,-0.2733
0.9504,-0.2172,-0.2733
1.0657,-0.0492,-0.156
1.2396,0.0328,-0.158
1.1282,-0.1703,-0.2342
1.054,0.0328,-0.156
1.054,0.0328,-0.156
1.2357,0.2301,-0.0798
1.3432,0.3024,-0.2459
1.3451,0.1403,-0.2929
1.2865,-0.0727,-0.3182
1.0598,-0.1508,-0.3124
1.0598,-0.1508,-0.3124
0.9133,-0.0883,-0.3104
0.9289,0.0035,-0.2205
0.9641,0.0718,-0.1345
0.7238,0.0133,-0.2654
0.7061,-0.0003,-0.2654
0.6358,-0.0257,-0.3124
0.6416,-0.0101,-0.2908
0.6651,0.0191,-0.326
0.6534,0.0367,-0.2948
0.6085,0.025,-0.3162
0.5655,0.0054,-0.3651
0.5518,-0.0159,-0.4042
0.5771,-0.0648,-0.4433
0.7569,-0.1351,-0.5742
0.7569,-0.1351,-0.5742
0.9953,-0.1,-0.5566
1.1478,-0.0785,-0.5293
1.2845,-0.0218,-0.5449
0.8488,0.0015,-0.6836
0.8488,0.0015,-0.6836
0.6866,0.0367,-0.75
0.8625,0.0876,-0.6778
1.7222,0.1579,-0.5332
0.9152,0.4568,-0.0877
0.8547,0.3631,-0.1483
0.5342,-0.0492,-0.1853
0.3857,-0.2406,-0.0447
1.265,-0.1293,-0.2284
1.265,-0.1293,-0.2284
1.3099,0.0231,-0.3436
1.1262,0.1226,-0.326
1.0032,0.1383,-0.3026
0.8312,-0.0413,-0.3026
0.8312,-0.0413,-0.3026
0.8253,-0.0531,-0.2987
0.798,-0.0609,-0.2303
0.8801,-0.1508,-0.3162
0.8801,-0.1508,-0.3162
0.8723,-0.1762,-0.3397
0.8703,-0.2269,-0.3436
0.7296,-0.1214,-0.3241
0.6905,-0.059,-0.285
0.6905,-0.059,-0.285
0.6905,-0.059,-0.285
0.7394,-0.0101,-0.2792
0.7648,-0.055,-0.2792
0.714,-0.1156,-0.3104
0.7745,-0.1528,-0.2929
0.7745,-0.1528,-0.2929
1.0422,-0.0883,-0.3612
1.0735,-0.1312,-0.4022
0.9231,-0.27,-0.4061
0.8019,-0.3188,-0.4471
0.7921,-0.3149,-0.369
0.7629,0.0406,-0.1893
0.925,0.2692,-0.2244
1.5014,0.3103,-0.4531
1.6089,0.3591,-0.4921
1.6793,0.3864,-0.625
1.5991,0.1324,-0.4902
1.1048,-0.0218,-0.5332
0.7413,-0.184,-0.498
0.8136,-0.0746,-0.4471
0.9504,-0.0569,-0.4862
1.0032,-0.0511,-0.5644
0.9739,-0.0101,-0.5605
0.8351,0.0797,-0.5136
0.6886,0.0543,-0.3495
0.6886,0.0543,-0.3495
0.6553,0.0152,-0.2869
0.628,-0.0003,-0.3339
0.5929,0.0289,-0.3963
0.6162,-0.0003,-0.4198
0.6437,-0.0082,-0.3768
0.6651,-0.0179,-0.3886
0.6553,-0.0257,-0.369
0.7277,0.0094,-0.4608
0.7277,0.0094,-0.4608
0.8605,-0.055,-0.2948
0.8586,0.0504,-0.2987
0.9562,0.109,-0.3495
0.9778,-0.0277,-0.41
0.8664,-0.0706,-0.371
0.8664,-0.0706,-0.371
0.9914,-0.1371,-0.3416
1.224,-0.1235,-0.3768
1.4467,-0.0159,-0.2381
1.2063,0.2145,-0.2186
1.1048,0.2106,-0.2303
1.4408,-0.0569,-0.3202
1.6108,-0.1214,-0.369
1.4252,-0.3091,-0.3397
0.9816,-0.3149,-0.4315
0.7569,-0.2797,-0.371
0.9465,-0.0746,-0.2713
1.0969,0.0015,-0.2186
1.0149,0.0876,-0.1267
0.966,0.0504,-0.1092
0.9602,0.0367,-0.1189
0.9308,-0.0413,-0.244
0.9035,-0.0687,-0.2459
0.8449,-0.0413,-0.1853
0.8586,-0.0179,-0.1932
0.9152,-0.0667,-0.2538
0.9015,-0.1273,-0.3221
0.8078,-0.1508,-0.2498
0.7198,-0.1058,-0.2088
0.6476,-0.0823,-0.2107
0.5929,-0.1,-0.2244
0.714,-0.1019,-0.2224
0.839,-0.0883,-0.2224
0.9054,-0.0981,-0.2538
0.7433,-0.096,-0.2303
0.6593,-0.0609,-0.2596
0.6632,-0.0159,-0.2068
0.7433,0.1422,-0.199
0.9485,0.3337,-0.326
1.3099,0.0269,-0.4725
1.4369,-0.2015,-0.6602
1.4702,-0.0883,-0.8165
1.6285,0.1891,-0.7324
1.5288,0.2399,-0.6543
0.9075,0.0523,-0.582
0.8488,0.0797,-0.5723
0.8468,0.1149,-0.5644
0.884,-0.0082,-0.5703
0.8527,-0.0492,-0.5938
0.8547,-0.0375,-0.4999
0.8097,-0.059,-0.4785
0.7022,-0.0413,-0.4452
0.628,-0.0179,-0.371
0.6221,-0.0394,-0.3397
0.5929,-0.0413,-0.3378
0.5538,-0.0179,-0.373
0.5674,0.0133,-0.369
0.671,0.0543,-0.4257
0.8664,0.0367,-0.5175
0.9329,-0.0941,-0.4589
0.8957,-0.0921,-0.4061
0.8293,0.0015,-0.412
0.8801,0.0211,-0.2126
0.8547,0.0073,-0.2596
0.7022,0.0035,-0.3182
0.6612,0.0367,-0.3065
0.6866,-0.1195,-0.3241
0.6026,-0.2269,-0.4862
0.9211,0.0211,-0.5293
0.9211,0.0211,-0.5293
1.2806,0.0739,-0.1658
1.7242,0.2576,-0.2967
1.1888,0.1735,-0.1326
0.8175,-0.014,-0.1912
0.8449,-0.0355,-0.2498
2.1385,-0.2681,-0.4179
1.7906,-0.2876,-0.4217
1.0188,-0.2856,-0.5488
0.8879,-0.2367,-0.369
0.843,0.0523,-0.2166
0.843,0.0523,-0.2166
1.0012,0.0231,-0.115
1.0442,-0.0257,-0.0661
0.9289,-0.0531,-0.1071
0.9621,-0.1,-0.3143
0.9816,-0.0823,-0.3319
0.966,-0.0023,-0.2831
0.9308,0.0289,-0.2107
0.8449,-0.0629,-0.1893
0.8214,-0.1391,-0.2205
0.8156,-0.1684,-0.2498
0.8527,-0.1996,-0.2869
0.9289,-0.1899,-0.3065
0.9895,-0.2094,-0.3416
0.884,-0.0336,-0.1423
0.8547,-0.0238,-0.1267
0.7238,-0.055,-0.1365
0.7648,-0.1117,-0.158
0.8136,-0.0667,-0.2303
0.8136,-0.0667,-0.2303
0.7862,-0.0629,-0.3182
0.8097,-0.1254,-0.3632
0.6847,-0.184,-0.2068
0.798,0.0406,-0.1795
0.798,0.0406,-0.1795
0.9152,0.1012,-0.1639
1.052,0.1969,-0.2381
1.2631,0.0328,-0.4687
1.4506,-0.1449,-0.5703
1.3275,-0.1235,-0.4179
1.0638,0.0054,-0.4277
1.7711,0.238,-0.6308
1.347,0.1109,-0.496
1.347,0.1109,-0.496
0.9641,-0.0101,-0.5156
0.7355,-0.1176,-0.4941
0.7101,-0.1488,-0.4667
0.8801,-0.059,-0.4589
0.8801,-0.059,-0.4589
0.8703,-0.0042,-0.4296
0.7862,0.0406,-0.3944
0.6162,0.1109,-0.3124
0.542,0.0231,-0.3553
0.542,0.0231,-0.3553
0.5615,-0.0296,-0.3984
0.5948,-0.0727,-0.4081
0.5557,-0.0453,-0.455
0.7061,-0.0609,-0.285
0.7061,-0.0609,-0.285
0.7902,-0.0667,-0.2479
0.8898,-0.014,-0.3319
0.9485,0.0758,-0.326
0.8136,0.1109,-0.2713
0.6299,-0.1,-0.4315
0.6866,-0.1273,-0.4452
0.882,-0.0844,-0.5018
1.1243,0.0073,-0.2713
1.3998,0.025,-0.4238
1.2513,0.1207,-0.0701
1.2474,0.2341,-0.156
1.6069,0.0231,-0.3104
1.7086,-0.1605,-0.4687
1.8102,-0.5299,-0.4531
0.9583,-0.4381,-0.4569
0.8703,-0.3208,-0.326
0.9015,-0.1137,-0.2303
0.9094,0.1286,-0.1736
0.9523,0.2555,-0.0935
1.009,0.1774,-0.072
0.9171,-0.1235,-0.1756
0.9152,-0.182,-0.1853
0.8996,-0.1684,-0.2049
0.9133,-0.0667,-0.2049
0.8859,-0.0179,-0.1853
0.8019,-0.0375,-0.199
0.7667,-0.1019,-0.2049
0.8058,-0.2211,-0.2908
0.8058,-0.2211,-0.2908
0.6319,-0.1468,-0.1639
0.5615,-0.0823,-0.1795
0.5224,0.0133,-0.197
0.9758,-0.0609,-0.2771
0.9836,-0.1508,-0.2263
0.7452,-0.1879,-0.2792
0.7452,-0.1879,-0.2792
0.712,-0.1957,-0.3495
0.6964,-0.1293,-0.2381
0.841,0.2067,-0.2147
1.3686,0.2106,-0.326
1.4604,0.1794,-0.3553
1.5933,0.0328,-0.6816
1.6421,0.0934,-0.6758
1.3158,0.1891,-0.6015
1.3158,0.1891,-0.6015
1.2533,0.15,-0.5566
0.7883,-0.0667,-0.5507
0.7823,-0.1918,-0.539
0.755,-0.1488,-0.4238
0.755,-0.1488,-0.4238
0.6437,0.0211,-0.3182
0.6339,0.1266,-0.3553
0.626,0.1637,-0.3572
0.585,0.0308,-0.3202
0.585,0.0308,-0.3202
0.5264,-0.1273,-0.3162
0.4873,-0.1156,-0.326
0.5068,-0.0082,-0.2987
0.7081,0.0972,-0.3397
0.7843,0.0758,-0.2713
0.843,0.0797,-0.244
0.9094,0.0914,-0.2654
0.9934,0.0855,-0.3104
0.669,-0.1156,-0.3436
0.585,-0.1468,-0.4296
0.6202,-0.1508,-0.4725
0.8605,-0.0336,-0.5332
1.4213,0.1226,-0.2615
1.5132,0.2418,-0.1639
1.5132,0.2418,-0.1639
0.8859,0.0836,-0.3358
1.7769,-0.2211,-0.3397
1.8981,-0.3403,-0.4629
0.7823,-0.4185,-0.4238
0.7862,-0.3071,-0.3807
0.8351,-0.1078,-0.3866
0.9895,0.0113,-0.3045
0.9465,-0.0042,-0.1834
0.9211,-0.0473,-0.1795
0.8938,-0.1626,-0.1893
0.8996,-0.1957,-0.2381
0.8039,-0.1312,-0.2107
0.798,-0.0863,-0.1521
0.7785,-0.1371,-0.2517
0.7785,-0.1371,-0.2517
0.796,-0.1742,-0.285
0.7159,-0.1879,-0.2538
0.673,-0.1566,-0.2147
0.6319,-0.0727,-0.1893
0.6319,-0.0727,-0.1893
0.7315,-0.0667,-0.199
0.8507,-0.0648,-0.201
0.8742,-0.0609,-0.2166
0.714,-0.1176,-0.2713
0.714,-0.1176,-0.2713
0.7355,-0.0511,-0.3788
0.9152,0.1032,-0.3241
1.2513,0.1188,-0.3651
1.5952,-0.1566,-0.4785
1.5424,0.4373,-0.8809
2.0524,0.5643,-0.8126
1.9567,0.2888,-0.668
1.1576,0.0914,-0.5605
0.7471,-0.1156,-0.5058
0.6437,-0.2133,-0.5507
0.667,-0.2797,-0.5078
0.7862,-0.2446,-0.5078
0.8879,-0.0042,-0.5018
0.7883,0.1657,-0.4374
0.6397,0.2672,-0.3241
0.5908,0.2282,-0.2459
0.6065,0.1188,-0.242
0.5635,-0.0159,-0.2752
0.4912,-0.1156,-0.3085
0.456,-0.0823,-0.3085
0.4599,-0.0257,-0.328
0.5655,0.0739,-0.3788
0.8879,0.1246,-0.2771
0.8957,0.0348,-0.2948
0.8957,0.0348,-0.2948
0.8586,0.0035,-0.328
0.5929,-0.0981,-0.5018
1.2865,-0.0296,-0.197
1.2865,-0.0296,-0.197
1.3784,-0.0336,-0.2186
1.6304,0.0308,-0.3104
0.8879,0.1735,-0.412
