accx,accy,accz
1.0344,0.277,-0.1404
1.0344,0.277,-0.1404
1.2787,0.2399,-0.1483
1.3275,0.2458,-0.1932
1.0051,0.2809,-0.1404
0.8312,0.2868,-0.1795
0.7921,0.2966,-0.1814
0.7862,0.3005,-0.1736
0.8957,0.2927,-0.1423
0.9543,0.2946,-0.1795
0.9778,0.2829,-0.1932
0.9836,0.2712,-0.1893
1.009,0.2067,-0.2831
1.0207,0.1833,-0.3495
1.0305,0.1657,-0.3397
0.9387,0.1637,-0.3456
0.9485,0.1403,-0.3749
0.9426,0.1149,-0.3924
0.9465,0.1109,-0.3944
0.9583,0.1286,-0.3963
0.9602,0.1481,-0.3847
0.9445,0.1598,-0.3807
0.8507,0.1735,-0.3651
0.8195,0.1989,-0.3514
0.839,0.2087,-0.3397
0.8586,0.2087,-0.3221
0.8488,0.195,-0.3436
0.8449,0.1637,-0.3456
0.8644,0.1559,-0.3436
0.8879,0.1383,-0.3397
0.8898,0.1188,-0.3456
0.9523,0.0855,-0.3202
1.0032,0.1286,-0.3085
1.0188,0.1813,-0.3104
1.0188,0.1852,-0.3339
0.9876,0.1579,-0.326
0.8449,0.0953,-0.3104
0.8351,0.0718,-0.3085
0.8761,0.0816,-0.3182
0.966,0.0718,-0.3085
0.968,0.0601,-0.2811
0.9504,0.0836,-0.2381
0.9504,0.1109,-0.2147
0.9739,0.1305,-0.2205
1.0286,0.1696,-0.2322
0.9876,0.1442,-0.2205
0.9562,0.1012,-0.2126
0.9426,0.0445,-0.2107
0.9797,0.0485,-0.2303
0.9739,0.0739,-0.2166
0.9739,0.0739,-0.2166
0.9699,0.0797,-0.2166
0.9876,0.0739,-0.2126
0.9739,0.0523,-0.2303
0.9816,0.0464,-0.2401
0.9856,0.0504,-0.2459
0.9797,0.0504,-0.244
0.9465,0.0641,-0.2147
0.9387,0.0543,-0.2205
0.9719,0.0308,-0.2322
0.9836,0.0289,-0.2322
1.0051,0.0231,-0.2303
1.0266,0.0504,-0.197
0.9953,0.0758,-0.197
0.9953,0.0836,-0.203
0.9797,0.0601,-0.2381
0.9641,-0.0023,-0.2771
0.9914,-0.0433,-0.3202
1.0442,-0.0003,-0.369
1.1419,0.0739,-0.371
1.1321,0.1676,-0.1776
1.1321,0.1676,-0.1776
1.0384,0.3103,-0.0623
0.8996,0.3591,-0.0349
0.837,0.2185,-0.1814
0.8547,0.107,-0.285
0.9035,0.0406,-0.3241
0.9485,0.0739,-0.3006
0.9094,0.1579,-0.2576
0.8723,0.1149,-0.2889
0.9367,0.0621,-0.3085
0.9993,0.0426,-0.3378
1.0207,0.0445,-0.3436
0.9719,0.0543,-0.3319
0.882,0.0739,-0.3182
0.8449,0.0876,-0.3241
0.837,0.0992,-0.326
0.8742,0.1109,-0.3162
0.9269,0.1032,-0.3104
0.9445,0.0992,-0.3104
0.925,0.1012,-0.3241
0.8957,0.1109,-0.3339
0.8742,0.1032,-0.3319
0.8507,0.0972,-0.3202
0.8332,0.0778,-0.326
0.839,0.0562,-0.3495
0.8527,0.0543,-0.3436
0.8507,0.0718,-0.3534
0.9621,0.1226,-0.3436
0.9308,0.1012,-0.3182
0.9308,0.1012,-0.3182
0.9015,0.0953,-0.3104
0.9171,0.1188,-0.4042
1.0188,-0.0804,-0.5214
1.0188,-0.0804,-0.5214
1.0461,-0.1742,-0.5449
1.1185,-0.266,-0.4921
1.56,0.2106,-0.4374
1.5874,0.4842,-0.3612
1.1204,0.3708,-0.1756
0.8468,0.2946,-0.1951
0.4776,-0.0101,-0.2166
0.5361,-0.0765,-0.1853
0.7941,-0.0101,-0.1853
1.0442,0.1032,-0.1502
1.1282,0.191,-0.1423
1.0833,0.2576,-0.0857
0.968,0.1774,-0.1658
0.8684,0.0718,-0.2479
0.8351,0.0171,-0.2576
0.8351,0.0171,-0.2576
0.9171,0.0641,-0.2303
0.9562,0.0739,-0.2263
0.9523,0.0289,-0.2401
0.9348,-0.0277,-0.2869
0.925,-0.0257,-0.3026
0.9289,-0.0042,-0.3124
0.9152,0.0133,-0.2987
0.9289,0.0035,-0.2948
0.9269,-0.0062,-0.3182
0.9192,-0.0218,-0.3162
0.9231,-0.0394,-0.3182
0.9192,-0.0727,-0.3085
0.9113,-0.0921,-0.3006
0.9329,-0.0902,-0.285
0.9797,-0.0629,-0.2967
0.9895,-0.0316,-0.3221
0.9876,-0.0257,-0.3397
0.9972,-0.0277,-0.3553
1.0461,0.0426,-0.3553
1.0715,0.0895,-0.3299
1.1008,0.1774,-0.3456
1.1008,-0.0062,-0.4725
1.0501,-0.0667,-0.0975
1.0501,-0.0667,-0.0975
1.0579,0.068,0.1292
0.9739,0.578,-0.074
0.9329,0.2145,-0.3026
0.9329,0.2145,-0.3026
0.9015,-0.0531,-0.2831
0.8742,-0.2015,-0.3339
0.966,-0.0062,-0.4315
1.0833,0.1442,-0.2303
1.0735,0.1481,-0.2263
1.013,0.1461,-0.2322
0.8644,0.0523,-0.2811
0.841,0.0406,-0.285
0.837,0.068,-0.2889
0.8625,0.0992,-0.285
0.9152,0.107,-0.2733
0.9035,0.0953,-0.2733
0.884,0.0758,-0.2752
0.8723,0.0426,-0.2811
0.8703,0.0054,-0.3085
0.8664,-0.0316,-0.3534
0.8684,-0.0296,-0.3632
0.8781,-0.0433,-0.3768
0.8742,-0.0413,-0.3944
0.882,-0.0082,-0.4198
0.8644,-0.0062,-0.3807
0.8644,-0.0062,-0.3807
0.9329,0.025,-0.2869
0.9953,0.1461,-0.2479
0.9797,0.1168,-0.328
1.1165,-0.2485,-0.4941
1.2317,-0.2446,-0.4413
1.353,-0.0199,-0.373
1.478,0.2341,-0.3632
1.3842,0.2751,-0.2596
0.9269,0.1754,-0.2459
0.5284,0.0699,-0.2342
0.4248,-0.0336,-0.2126
0.7902,0.0191,-0.1404
1.1732,0.1735,-0.1052
1.1732,0.1735,-0.1052
1.222,0.1696,-0.1071
0.9836,0.0504,-0.2224
0.9836,0.0504,-0.2224
0.7765,0.0328,-0.2752
0.7706,0.0445,-0.2479
0.8136,0.0523,-0.2068
0.9953,-0.0042,-0.2205
0.9934,-0.0375,-0.2401
0.9739,-0.0569,-0.2517
0.9641,-0.055,-0.285
0.9523,-0.0316,-0.2889
0.9602,0.0073,-0.2908
0.9387,0.0015,-0.3065
0.9387,0.0015,-0.3065
0.9192,-0.0003,-0.2967
0.8996,0.0054,-0.285
0.9269,-0.0355,-0.2733
0.9758,-0.0902,-0.2967
0.9758,-0.0902,-0.2967
0.9972,-0.1058,-0.3593
0.9816,-0.0921,-0.3944
0.9778,-0.0648,-0.3456
0.9816,-0.0023,-0.3593
0.966,0.066,-0.3593
1.0207,0.0855,-0.2831
1.0403,0.1344,-0.3416
1.0207,0.0367,-0.3905
1.007,-0.0941,-0.4452
1.183,0.0504,0.0119
1.183,0.0504,0.0119
1.1106,0.5173,0.0216
0.9778,0.5233,-0.0544
0.8547,0.2164,-0.2166
0.8586,-0.3091,-0.4374
0.8586,-0.3091,-0.4374
0.8917,-0.1468,-0.4725
0.9758,0.0211,-0.3553
1.0247,0.109,-0.2929
0.9856,0.0778,-0.2674
0.9856,0.0778,-0.2674
0.8938,0.0191,-0.3182
0.8547,0.0171,-0.3182
0.8488,0.0367,-0.3045
0.8879,0.0445,-0.3182
0.8879,0.0445,-0.3182
0.8761,0.068,-0.3006
0.8644,0.0582,-0.2967
0.839,0.0289,-0.3065
0.8351,-0.0316,-0.3651
0.839,-0.0316,-0.3632
0.8507,-0.0413,-0.3768
0.8586,-0.0453,-0.4061
0.8586,0.0133,-0.4159
0.9094,0.0035,-0.367
0.9094,0.0035,-0.367
1.0032,0.0171,-0.3202
1.0892,-0.0569,-0.4179
1.1712,-0.352,-0.4706
1.1712,-0.352,-0.4706
1.2748,-0.3051,-0.4765
1.4194,0.109,-0.4315
1.3275,0.531,-0.2303
0.7706,0.2614,-0.2224
0.5596,0.1344,-0.2576
0.456,-0.0023,-0.2674
0.7471,-0.059,-0.2107
0.9972,0.1559,-0.0935
1.1165,0.2751,-0.0544
1.1321,0.3142,-0.0447
1.0032,0.1715,-0.1345
0.9094,0.0895,-0.1697
0.839,0.0191,-0.2498
0.841,0.0073,-0.2792
0.8527,0.0073,-0.2752
0.9836,0.0308,-0.2322
0.9895,0.0289,-0.2205
0.9641,0.0113,-0.2361
0.9348,-0.0101,-0.2557
0.9094,0.0073,-0.2792
0.9289,0.0094,-0.2889
0.9583,0.0094,-0.285
0.9562,0.0133,-0.3045
0.9192,-0.0082,-0.3045
0.884,-0.0453,-0.2908
0.8996,-0.0629,-0.2967
0.9211,-0.0785,-0.3006
0.9348,-0.0706,-0.3104
0.9953,-0.0511,-0.3124
1.0266,-0.0199,-0.326
0.9953,-0.012,-0.3749
0.9719,-0.0179,-0.3866
0.9523,-0.0159,-0.3944
0.9465,-0.0003,-0.4081
1.0247,0.1032,-0.4198
1.0403,0.0972,-0.4257
1.1067,-0.059,-0.3984
1.1458,-0.1664,-0.3514
1.1536,-0.0629,-0.0427
1.1029,0.3631,0.0861
0.9972,0.5741,-0.0134
0.8977,0.447,-0.1345
0.8527,-0.0902,-0.3476
0.8507,-0.1684,-0.4706
0.8507,-0.1684,-0.4706
0.8957,-0.1,-0.4511
0.9876,0.0308,-0.371
1.054,0.0582,-0.2694
0.8801,0.0308,-0.3085
0.8801,0.0308,-0.3085
0.8605,0.0367,-0.3124
0.8547,0.066,-0.3045
0.9308,0.0426,-0.2987
0.9308,0.0426,-0.2987
0.9289,0.0387,-0.3006
0.8957,0.0328,-0.2771
0.8684,0.0308,-0.2948
0.8723,0.0054,-0.3162
0.8703,-0.0277,-0.3436
0.8566,-0.0629,-0.3632
0.843,-0.0648,-0.3886
0.884,-0.0375,-0.4042
0.9329,-0.0082,-0.3827
0.9329,-0.0003,-0.3847
0.9211,-0.0336,-0.3924
0.9972,-0.0277,-0.3065
0.9583,0.0934,-0.2987
0.9641,-0.0413,-0.4335
1.1947,-0.3305,-0.4765
1.3842,-0.1645,-0.41
1.476,0.1891,-0.3807
1.5463,0.4549,-0.3358
0.9914,0.277,-0.1443
0.7492,0.1657,-0.2107
0.4951,-0.0101,-0.244
0.5166,-0.0453,-0.2401
0.6085,0.0308,-0.1443
0.9426,0.1735,-0.0388
1.2279,0.2516,-0.0759
1.1751,0.1559,-0.1326
0.9739,0.0718,-0.1462
0.8488,0.0269,-0.199
0.796,0.0054,-0.2459
0.8684,0.0211,-0.2557
0.968,0.0133,-0.2401
0.9953,-0.0003,-0.2479
0.9856,-0.0199,-0.2517
0.9387,-0.0355,-0.2654
0.9289,-0.0336,-0.285
0.9426,-0.0042,-0.285
0.968,0.0211,-0.2635
0.9621,0.0289,-0.2771
0.9075,0.0094,-0.2889
0.9075,-0.0042,-0.2771
0.9075,-0.0003,-0.2792
0.9406,-0.0257,-0.2713
0.9797,-0.0667,-0.3202
0.9914,-0.0569,-0.371
0.9876,-0.0413,-0.3866
0.9719,-0.0355,-0.3612
0.9562,-0.0179,-0.3397
1.007,0.0485,-0.3651
1.0774,0.1657,-0.4374
1.0403,0.0035,-0.3768
1.0598,-0.0394,-0.3495
1.0871,0.0171,-0.1189
1.1204,0.2927,0.1213
1.0559,0.4881,0.0491
0.9856,0.2986,-0.1853
0.9699,0.2341,-0.2205
0.8859,-0.1664,-0.4452
0.8293,-0.2231,-0.4902
0.8859,-0.096,-0.4452
0.9583,0.0171,-0.3397
0.9836,0.0601,-0.2967
1.0012,0.0601,-0.2908
0.9895,0.0562,-0.2987
0.8723,0.0621,-0.3026
0.8214,0.0601,-0.2831
0.841,0.0543,-0.2654
0.8742,0.0464,-0.2908
0.9308,0.0485,-0.2869
0.9387,0.0699,-0.285
0.8507,0.0445,-0.2733
0.8488,0.0133,-0.2967
0.8742,-0.014,-0.3241
0.8996,-0.0413,-0.3593
0.8605,-0.0765,-0.3788
0.837,-0.0823,-0.3963
0.8449,-0.0394,-0.3924
0.8801,0.0054,-0.367
0.9054,0.0426,-0.3339
0.9289,-0.0199,-0.2771
0.9289,-0.0199,-0.2771
0.968,0.0739,-0.2244
0.968,0.0464,-0.2694
1.0305,-0.1058,-0.3866
1.1262,-0.3422,-0.584
1.1029,-0.4419,-0.4725
1.3666,-0.1156,-0.4882
1.5072,0.2164,-0.4061
1.6382,0.5701,-0.1893
0.6534,0.1579,-0.2674
0.6534,0.1579,-0.2674
0.4795,-0.0473,-0.285
0.4541,-0.0981,-0.2284
0.8723,0.2204,0.0393
1.3744,0.3748,-0.1345
1.3744,0.3748,-0.1345
1.2729,0.238,-0.1697
0.968,0.0778,-0.158
0.7433,-0.0706,-0.3339
0.9308,0.0231,-0.2713
0.9485,0.0348,-0.2576
0.9485,0.0348,-0.2576
0.9602,0.025,-0.2576
0.9348,0.0035,-0.2948
0.9133,-0.0082,-0.285
0.9133,-0.0082,-0.285
0.9133,-0.0082,-0.285
0.9348,-0.0003,-0.3241
0.8917,-0.012,-0.2733
0.884,-0.012,-0.2635
0.884,-0.012,-0.2635
0.925,-0.0316,-0.242
0.9485,-0.0629,-0.2557
0.966,-0.1176,-0.3182
1.0051,-0.096,-0.367
0.9934,-0.0706,-0.3534
0.9972,-0.0706,-0.3651
0.9993,-0.0706,-0.3807
0.9993,-0.0473,-0.3847
1.0266,0.068,-0.4257
1.0266,0.068,-0.4257
1.0012,0.0231,-0.4667
1.0559,-0.0823,-0.4413
1.1399,-0.0981,-0.1208
1.2005,0.2028,0.1194
1.0735,0.49,0.0432
0.9543,0.535,-0.0838
0.8586,0.2946,-0.2126
0.8547,-0.0473,-0.3612
0.8605,-0.1899,-0.3866
0.8938,-0.1293,-0.3924
0.9583,-0.0218,-0.3612
1.0207,0.0504,-0.2948
1.0638,0.0778,-0.2517
0.9719,0.0797,-0.2908
0.8703,0.0523,-0.2831
0.8586,0.0523,-0.2811
0.8664,0.0464,-0.2694
0.8801,0.0504,-0.2948
0.8742,0.0289,-0.3221
0.8527,-0.0062,-0.3162
0.839,-0.0101,-0.3143
0.8449,-0.012,-0.3104
0.8781,-0.0257,-0.3397
0.8723,-0.0473,-0.3749
0.8684,-0.0492,-0.3924
0.843,-0.0648,-0.4217
0.841,-0.0746,-0.4745
0.8625,-0.0569,-0.4804
1.011,0.0269,-0.3143
1.011,0.0269,-0.3143
1.1067,0.2145,-0.2771
1.1204,0.0485,-0.3788
1.1067,-0.27,-0.3827
1.181,-0.2055,-0.4217
1.3314,0.1032,-0.369
1.517,0.3885,-0.2733
1.4233,0.2966,-0.1834
0.9348,0.1324,-0.2186
0.503,-0.014,-0.2381
0.503,-0.014,-0.2381
0.6046,0.0035,-0.1131
0.7648,0.0562,-0.0877
1.0559,0.1109,-0.1052
1.265,0.1344,-0.1248
1.1243,0.1286,-0.1111
0.9602,0.0855,-0.1619
0.837,0.0464,-0.2342
0.8078,0.0015,-0.2674
0.8723,-0.0199,-0.2498
0.9445,-0.0159,-0.2322
0.9797,-0.0218,-0.2263
0.9758,-0.0277,-0.242
0.9523,-0.0277,-0.2596
0.9543,-0.0159,-0.2654
0.9621,-0.0062,-0.2674
0.9523,0.0054,-0.2713
0.9426,0.0231,-0.2752
0.9211,0.0133,-0.2517
0.8938,-0.0336,-0.2361
0.9015,-0.0629,-0.2459
0.9329,-0.0765,-0.2538
0.968,-0.0804,-0.2654
0.9856,-0.0706,-0.2811
0.9739,-0.0492,-0.3241
0.9719,-0.0511,-0.3553
0.9739,-0.0492,-0.3612
0.9993,-0.0336,-0.3651
0.9934,-0.0199,-0.3495
1.013,-0.0062,-0.2967
1.0149,0.0073,-0.3104
1.0188,0.0504,-0.3749
1.0384,-0.1312,-0.4471
1.0032,-0.014,-0.1248
1.0032,-0.014,-0.1248
1.1341,0.1305,0.092
1.1576,0.3591,0.1194
0.9367,0.4041,-0.1306
0.8625,0.0739,-0.2538
0.8527,-0.0511,-0.3065
0.8449,-0.2504,-0.373
0.9739,-0.0785,-0.4061
1.0286,0.0621,-0.2987
1.0657,0.1012,-0.2792
1.0598,0.0836,-0.2635
1.0207,0.0387,-0.244
0.8488,0.0211,-0.285
0.839,0.0426,-0.2869
0.9211,0.0504,-0.2713
0.9211,0.0504,-0.2713
0.9211,0.0543,-0.2792
0.8977,0.0504,-0.2771
0.8996,0.0348,-0.2831
0.9015,-0.0062,-0.3045
0.9015,-0.0062,-0.3045
0.837,-0.0433,-0.3534
0.8253,-0.0473,-0.3612
0.8644,-0.0218,-0.3768
0.9192,0.0015,-0.3807
0.9192,0.0015,-0.3807
0.9329,-0.0199,-0.3612
0.9465,-0.0511,-0.3358
0.9699,-0.0179,-0.3358
1.0598,0.0113,-0.3749
1.0813,-0.0101,-0.3847
1.1536,-0.0883,-0.3768
1.2279,-0.1371,-0.367
1.3256,0.0387,-0.3768
1.3158,0.1931,-0.326
1.1204,0.154,-0.285
0.882,0.0972,-0.2987
0.6651,0.0308,-0.3299
0.5615,-0.0511,-0.2322
0.7238,-0.0355,-0.158
0.9015,0.0543,-0.1229
1.0911,0.1598,-0.0954
1.2103,0.2301,-0.1013
1.1321,0.2262,-0.0564
0.8801,0.0641,-0.1872
0.8547,0.0113,-0.2361
0.8507,-0.0413,-0.2792
0.884,-0.0473,-0.2792
0.9269,-0.0375,-0.2557
0.9602,-0.0082,-0.2479
0.9485,-0.012,-0.2517
0.9426,-0.0179,-0.2615
0.9329,-0.0355,-0.2987
0.9192,-0.0101,-0.2733
0.9192,-0.0101,-0.2733
0.9152,-0.0062,-0.2733
0.9113,-0.0159,-0.285
0.9406,-0.0394,-0.2635
0.9367,-0.0473,-0.2557
0.9289,-0.0648,-0.2596
0.9171,-0.0981,-0.2733
0.9699,-0.1137,-0.2771
0.9739,-0.0687,-0.3358
0.968,-0.0433,-0.369
0.9778,-0.0569,-0.3006
0.9778,-0.0569,-0.3006
1.0559,-0.0296,-0.3065
1.136,0.0308,-0.3319
1.1595,0.0269,-0.3944
1.1439,-0.1176,-0.4687
1.0442,-0.1097,-0.3495
1.007,-0.0257,-0.1013
1.0168,0.1286,0.0412
0.9621,0.361,0.0197
0.8644,0.365,-0.1716
0.8605,0.1696,-0.285
0.9113,-0.0413,-0.326
0.9445,-0.1938,-0.367
0.9641,-0.1468,-0.4159
1.0774,-0.012,-0.3241
1.0735,0.0348,-0.3124
1.0266,0.0504,-0.3045
0.9445,0.0426,-0.2869
0.8586,0.0269,-0.2694
0.8449,0.068,-0.2654
0.8566,0.0739,-0.2733
0.9113,0.0914,-0.2654
0.9485,0.068,-0.2908
0.8684,0.0211,-0.285
0.8684,0.0211,-0.285
0.8332,0.0171,-0.2869
0.8468,-0.0101,-0.3182
0.8605,-0.0433,-0.3436
0.8761,-0.0648,-0.373
0.8566,-0.0453,-0.4042
0.8468,-0.0257,-0.3963
0.8664,0.0094,-0.3866
0.884,0.0308,-0.3963
0.8957,-0.0003,-0.3905
0.9562,-0.0296,-0.3456
0.9778,-0.0082,-0.3065
0.9856,0.066,-0.2948
1.1185,-0.0413,-0.414
1.2982,-0.2153,-0.4745
1.2474,-0.1468,-0.4413
1.3353,0.0914,-0.2948
1.3959,0.32,-0.2771
1.3197,0.277,-0.2792
0.5538,0.025,-0.2635
0.5538,0.025,-0.2635
0.4443,-0.0706,-0.2107
0.7022,0.0113,-0.0954
1.1048,0.1794,-0.072
1.2494,0.2672,-0.0193
1.2494,0.2672,-0.0193
0.9621,0.107,-0.1483
0.8684,0.0231,-0.2361
0.8234,-0.0218,-0.2635
0.9308,0.0015,-0.2205
0.9308,0.0015,-0.2205
0.9778,-0.0062,-0.2224
0.9387,-0.0257,-0.2654
0.968,-0.014,-0.2771
0.968,-0.014,-0.2771
0.968,-0.014,-0.2771
0.9465,0.0171,-0.2831
0.9269,0.0133,-0.2869
0.925,-0.012,-0.2771
0.9192,-0.0531,-0.2674
0.9192,-0.0531,-0.2674
0.9192,-0.0706,-0.2635
0.9367,-0.0629,-0.2615
0.9641,-0.055,-0.2674
0.9797,-0.0238,-0.2948
0.9836,-0.0023,-0.326
0.9836,-0.0101,-0.3378
0.9739,-0.0375,-0.3339
0.9426,-0.0238,-0.3495
1.0735,0.0445,-0.2771
1.0735,0.0445,-0.2771
1.1321,0.0699,-0.2752
1.1751,0.0308,-0.4589
1.1029,-0.1468,-0.4335
1.0617,-0.2074,-0.2049
0.9895,-0.014,0.0666
0.9094,0.3377,0.0959
0.841,0.4919,-0.0603
0.9758,0.1813,-0.3026
1.0324,-0.0785,-0.3749
0.9641,-0.2133,-0.4081
0.8781,-0.1996,-0.4257
0.9171,-0.0569,-0.369
0.9993,0.0289,-0.2948
1.013,0.0504,-0.2908
0.9758,0.0485,-0.2771
0.9094,0.0348,-0.2792
0.8644,0.0211,-0.2929
0.8586,0.0582,-0.2654
0.884,0.0621,-0.244
0.9329,0.0562,-0.2401
0.966,0.0406,-0.2635
0.8898,0.0211,-0.2752
0.8703,-0.0375,-0.3182
0.8703,-0.0375,-0.3182
0.8801,-0.0473,-0.3319
0.8859,-0.0629,-0.3456
0.8625,-0.0746,-0.3632
0.9075,-0.014,-0.3416
0.9075,-0.014,-0.3416
0.9075,0.0035,-0.3339
0.9035,-0.0101,-0.2869
0.9504,-0.0433,-0.244
0.9876,-0.0316,-0.2596
0.9876,-0.0316,-0.2596
1.054,-0.2192,-0.4238
1.3353,-0.4127,-0.4531
1.4369,-0.0179,-0.4629
1.4565,0.4666,-0.2713
1.4565,0.4666,-0.2713
0.7608,0.2106,-0.2401
0.5869,0.068,-0.2263
0.5361,-0.0199,-0.1853
0.8781,0.1754,-0.0251
0.8781,0.1754,-0.0251
1.181,0.2497,-0.0623
1.308,0.236,-0.1658
1.052,0.1344,-0.1111
0.8058,-0.0492,-0.2811
0.8058,-0.0492,-0.2811
0.8566,-0.0473,-0.285
0.9797,-0.0159,-0.2674
1.0012,0.0348,-0.2049
0.9192,0.0171,-0.2322
0.9192,0.0171,-0.2322
0.8898,-0.0101,-0.2615
0.925,-0.0394,-0.2752
1.0051,-0.0238,-0.2694
1.0247,-0.0062,-0.2733
0.9602,-0.014,-0.2908
0.9113,-0.0238,-0.285
0.8859,-0.0277,-0.2713
0.9054,-0.0336,-0.2557
0.9445,-0.0609,-0.2244
0.9621,-0.0706,-0.242
0.968,-0.0844,-0.2615
0.9602,-0.0746,-0.3104
0.9348,-0.0687,-0.369
0.925,-0.059,-0.3339
0.9308,-0.0394,-0.3202
0.9699,-0.0003,-0.3065
1.0207,0.0289,-0.3006
1.1185,0.0895,-0.3045
1.1458,-0.0355,-0.4022
1.1321,-0.0609,-0.41
1.0481,-0.0569,-0.3788
1.0598,0.0739,0.0178
0.9914,0.2986,0.0237
0.8566,0.3415,-0.1169
0.8566,0.3415,-0.1169
0.7941,0.195,-0.2811
0.9308,-0.1097,-0.3572
1.0559,-0.0569,-0.3632
1.0559,-0.0569,-0.3632
1.0598,-0.0062,-0.3221
1.0559,0.0601,-0.2889
0.9699,0.0621,-0.2929
0.8703,0.0348,-0.3006
0.7883,0.0328,-0.2869
0.7843,0.0426,-0.2752
0.837,0.0523,-0.2869
0.9113,0.0367,-0.3006
0.966,0.025,-0.3026
0.9485,0.025,-0.2869
0.8917,0.0035,-0.2811
0.8898,-0.0199,-0.3045
0.9035,-0.0531,-0.3436
0.9133,-0.0804,-0.373
0.9211,-0.0863,-0.367
0.9348,-0.0883,-0.3436
0.9465,-0.0746,-0.3299
0.9035,-0.0355,-0.3241
0.8664,-0.0179,-0.2929
0.9133,-0.0062,-0.3221
0.9465,0.0171,-0.3221
0.9953,-0.0042,-0.2987
1.0794,-0.0902,-0.2889
1.4135,-0.055,-0.244
1.4135,-0.055,-0.244
1.4271,0.0387,-0.1736
1.1966,0.0328,-0.2733
0.9075,-0.0257,-0.2792
0.6651,-0.0473,-0.201
0.6299,-0.0746,-0.072
0.7101,-0.0473,0.0412
0.8625,0.0171,0.1115
1.1341,0.1324,0.1487
1.2435,0.0855,-0.0368
1.1497,-0.0042,-0.1111
1.0501,-0.0648,-0.1365
0.9543,-0.1078,-0.1385
0.8664,-0.1371,-0.1462
0.9152,-0.1449,-0.1326
0.9562,-0.1528,-0.1248
0.9934,-0.1528,-0.1267
