accx,accy,accz
0.8586,-0.1703,0.0256
1.3373,-0.3071,-0.4745
0.8507,-0.0375,0.0588
1.0188,0.0289,0.051
1.183,0.0308,0.0901
1.2748,-0.2387,-0.0759
0.8566,-0.1,0.1233
0.671,-0.1019,0.0276
0.4229,-0.0375,-0.201
0.9445,0.0504,-0.0623
1.011,-0.0667,0.0588
0.8156,0.0406,-0.1111
0.628,0.1559,-0.0857
0.8917,0.2634,-0.029
0.9602,0.2106,-0.2479
0.9583,0.0113,-0.1423
0.9816,0.0231,0.0197
0.8586,-0.0473,-0.029
0.9504,-0.0667,-0.1502
1.0481,-0.0823,-0.115
1.0989,0.1149,-0.2361
0.8586,0.0231,0.1115
1.0833,0.0269,-0.0153
1.2005,-0.055,-0.0114
1.3178,-0.1,-0.1326
0.966,0.0171,-0.2361
0.673,0.2595,-0.1853
0.6299,0.3317,-0.1052
0.8977,0.3279,-0.2479
0.8664,0.2809,-0.2889
0.8977,0.238,-0.2635
1.2396,0.2536,-0.2401
1.0012,0.1149,-0.0798
0.7238,-0.055,-0.2674
0.6924,-0.1019,-0.2948
0.9523,0.0758,-0.1541
1.009,-0.0101,-0.0603
0.7765,-0.1176,-0.1814
0.9621,0.0739,-0.3241
0.8586,-0.0453,-0.2967
0.8996,0.1363,-0.1483
1.0168,0.2282,0.223
1.2923,-0.0863,-0.0564
1.0638,0.0641,-0.1071
1.0384,0.0699,-0.2068
0.8859,0.1676,-0.1326
1.177,-0.0921,-0.0779
1.1008,-0.0218,-0.0447
1.1556,0.0289,-0.0584
0.8781,0.15,-0.033
0.8781,0.15,-0.033
0.9426,0.0231,0.0686
1.0384,-0.0277,-0.0427
1.0305,0.0171,-0.0642
0.9426,0.0054,-0.1131
1.0676,-0.0023,-0.0544
1.1439,0.0367,0.0588
1.3412,-0.0336,0.0842
1.0579,-0.0101,-0.1853
0.9015,0.1696,0.4867
0.7277,0.0562,-0.1052
0.6886,0.3494,0.4613
0.9348,-0.0316,-0.203
1.052,0.3454,0.0276
1.0501,0.3767,0.0803
1.2005,0.2224,0.1546
1.013,-0.4341,-0.199
1.0481,-0.7076,-0.3358
0.9602,-0.3715,-0.3124
0.9015,-0.2583,-0.2107
0.8468,-0.0492,-0.027
0.9465,-0.0179,0.1976
1.0813,0.1344,0.0237
0.9914,0.4138,0.1683
1.009,0.3669,0.0119
1.0931,0.0562,0.0803
1.0247,-0.0492,-0.2126
0.9289,0.0094,-0.2186
0.837,-0.0082,-0.2205
0.9621,0.0543,-0.1345
1.0676,0.2907,0.0197
0.9075,0.4842,0.3539
1.0871,0.0895,0.0432
0.9133,-0.1019,-0.1795
0.9543,-0.1996,-0.1697
0.8488,0.0035,-0.0857
0.7492,0.066,-0.1462
0.8898,0.0953,-0.0975
1.0051,0.1032,0.0041
1.0598,0.1032,0.0021
1.1106,0.0582,0.0803
1.1966,0.0855,0.0412
1.0833,0.1305,-0.0505
0.9445,0.1598,-0.0759
0.9934,0.0054,-0.1639
0.9348,0.0895,-0.0817
1.0657,0.066,-0.0486
1.0266,0.0582,-0.072
0.9035,0.0601,0.0861
0.9543,0.1696,-0.0427
0.9543,0.1696,-0.0427
1.1087,0.2185,0.0901
0.9367,0.2946,-0.0232
1.0012,0.191,-0.0427
0.9934,0.2418,-0.0251
1.0207,0.2204,-0.0466
0.8723,0.2145,-0.031
0.9465,0.2497,0.0822
0.884,0.2536,-0.0857
0.9289,0.3161,-0.0935
0.9406,0.4099,0.0724
0.9406,0.4099,0.0724
1.1653,0.1676,-0.0134
0.9797,0.0718,-0.0114
0.8605,0.0231,-0.0349
0.9308,0.0485,-0.0584
1.1243,0.1617,-0.0681
1.0598,0.1032,0.0041
1.1751,0.195,0.0216
1.0363,0.1481,-0.0368
0.8097,0.3904,-0.0486
0.8097,0.3904,-0.0486
0.8917,0.2106,-0.1834
0.9895,0.1168,-0.0388
1.0384,0.1383,-0.158
1.0774,0.0485,0.0041
0.9836,0.1676,-0.1267
0.8917,0.3845,-0.1951
0.8234,0.1696,0.1233
1.0481,0.15,-0.029
1.0286,0.0387,-0.0701
0.9387,0.2478,-0.029
0.9914,0.2204,0.2424
0.884,0.1442,0.3441
0.7725,0.0816,0.0666
0.9719,0.3024,0.0647
0.9583,0.2692,0.1662
0.9993,0.066,0.2151
1.0676,-0.0238,0.0842
0.8723,-0.0238,-0.0954
0.8723,-0.0238,-0.0954
0.9269,-0.0394,-0.0584
0.9934,0.0426,-0.0661
1.1595,0.2262,0.0451
1.0012,0.0972,-0.0212
1.0012,0.0972,-0.0212
0.9836,-0.014,-0.0251
1.054,-0.0003,-0.0173
0.8547,0.0269,0.0432
0.8781,-0.0433,-0.027
0.9562,-0.0433,-0.0056
0.8351,-0.0218,-0.0544
1.0324,0.0094,-0.029
0.9797,0.0699,0.0334
0.8586,0.0778,0.0237
0.8625,0.0895,0.094
1.1712,0.0562,0.1018
1.2845,0.0054,0.0588
0.9523,0.0739,0.094
0.9289,0.0269,0.0021
0.9171,0.0718,-0.0915
0.843,0.15,-0.0016
1.0032,0.1032,0.0979
1.052,-0.0473,0.1662
1.1732,-0.2231,0.1839
1.1145,-0.3677,-0.0759
1.0403,-0.1156,0.0178
1.2962,0.0504,0.1115
1.0892,0.025,0.0744
0.585,0.0699,-0.0212
0.585,0.0699,-0.0212
0.6437,0.2204,0.389
0.9583,-0.0687,-0.1404
1.1165,0.0641,0.0373
0.9485,0.3552,0.0549
1.007,0.1871,0.2328
1.0012,0.113,0.0628
1.0931,-0.0531,0.1369
1.1751,-0.2895,-0.0544
1.1751,-0.2895,-0.0544
1.0403,-0.0101,0.0139
0.9641,0.1363,0.0568
1.0032,0.0855,0.0705
0.9856,0.0504,0.053
0.9993,0.0543,0.1018
0.9993,0.0543,0.1018
1.0363,0.0739,0.2738
1.2669,0.0054,0.0491
1.0598,0.154,0.2894
0.9485,0.1598,0.0764
0.7608,0.2204,0.047
0.9993,0.3103,0.0628
0.9876,0.236,0.0549
1.0247,0.1754,0.0451
1.0305,0.1266,0.0295
1.0286,0.0876,0.0432
0.9778,0.1012,-0.0056
0.9523,0.1403,0.0216
0.9562,0.1794,0.0178
0.9934,0.1852,0.0432
1.0422,0.1989,0.0451
1.0266,0.1149,0.0549
1.0461,0.0876,-0.0095
0.9699,0.0758,0.008
1.0051,0.1207,-0.0193
0.9289,0.1324,-0.0036
0.9504,0.1266,0.0256
1.0012,0.1422,-0.0056
0.9426,0.1226,-0.0212
0.9426,0.1188,-0.0016
0.9426,0.1188,-0.0016
1.0012,-0.0003,-0.0095
1.0442,-0.0844,-0.0877
0.968,-0.0765,-0.0368
1.0363,0.0953,0.0276
1.136,0.2868,0.0744
1.2005,0.2595,0.0607
1.1458,0.1266,0.0432
0.9289,0.3161,-0.0407
0.9308,0.4646,0.1155
0.9699,0.4041,0.0666
1.0794,0.3337,0.0334
0.6866,-0.0531,-0.0661
0.7823,0.6835,0.094
0.7823,0.6835,0.094
0.8977,0.7147,0.264
1.0638,0.4998,0.2542
0.9445,0.107,-0.1229
1.095,0.1754,0.2464
1.095,0.1754,0.2464
1.3705,0.8222,0.0803
1.1595,0.5818,0.1311
0.8468,0.2164,-0.1071
0.3955,-0.1528,-0.0798
1.0931,0.0445,0.1076
1.0931,0.0445,0.1076
1.2259,0.0778,0.0432
1.1556,0.1226,0.0568
1.0638,0.1246,0.2582
0.9523,0.0992,0.0139
0.9523,0.0992,0.0139
0.8723,0.1559,0.006
0.9972,0.2478,0.2444
1.181,0.2087,0.223
1.0481,0.2497,0.0882
0.9719,0.0895,0.2542
0.8684,0.1363,0.18
0.4502,-0.3969,0.0412
0.8214,-0.8464,-0.2147
1.5717,-0.3071,0.0744
0.9387,-0.1117,-0.0368
1.0676,-0.1742,-0.0779
1.0168,-0.1859,-0.0466
0.7785,0.109,-0.031
1.0266,-0.0433,0.047
1.0871,0.1442,0.0178
1.2494,-0.2329,0.3206
1.0969,-0.0883,0.1155
1.1224,0.0073,0.0393
1.0989,0.0191,0.2014
1.1029,0.0152,0.1683
1.0598,-0.0629,0.0276
0.9152,0.1324,0.1272
0.7608,0.3259,0.047
0.7608,0.3259,0.047
0.7745,0.4178,0.1292
0.9133,0.3103,0.1604
1.1008,0.0367,0.0451
1.0911,0.0485,0.0373
1.0324,0.1109,0.0354
0.9621,0.2439,0.0216
0.9289,0.1461,0.0139
1.0051,0.2301,0.1194
0.9914,0.1794,0.1233
0.9914,0.1794,0.1233
0.9699,0.1207,0.1038
0.8312,0.3767,0.1604
0.9367,0.2712,0.0822
0.9953,0.1833,0.0686
1.0247,0.1344,0.1135
1.0403,0.1715,0.0803
0.9075,0.2516,0.0393
0.8449,0.3473,0.051
0.9523,0.1871,0.0491
1.0715,0.0348,0.0744
0.9054,0.1168,0.1819
0.8977,0.3083,0.1194
0.925,0.1344,-0.0193
1.1614,-0.2055,0.1389
0.9231,-0.0238,0.0628
0.882,-0.0082,-0.0251
1.1029,-0.1762,-0.027
1.0676,-0.3755,0.2347
1.0559,-0.182,0.1369
1.0559,-0.182,0.1369
1.0012,-0.0902,-0.0056
1.0363,-0.229,0.0842
1.1185,-0.2485,0.18
1.054,-0.055,0.1916
1.1126,-0.096,0.1702
1.1243,-0.1391,0.1467
1.1224,-0.1684,0.1331
1.1048,-0.1684,0.1643
1.0813,-0.2015,0.1018
0.9094,-0.0062,0.0861
0.8644,0.152,0.0588
0.8605,0.3631,0.1311
0.7883,0.4373,0.1624
0.9445,0.2458,0.0628
0.9445,0.2458,0.0628
1.0344,0.2126,0.047
1.1947,0.1422,0.0158
0.8917,0.1598,0.2777
0.7589,0.3435,0.1467
0.7589,0.3435,0.1467
0.8078,0.3454,0.0256
1.0247,0.2888,-0.1326
1.1048,0.2458,-0.0368
0.9075,0.3259,-0.029
0.9075,0.3259,-0.029
0.9035,0.3435,-0.029
0.9075,0.3669,0.0607
0.9876,0.3904,0.0373
0.9876,0.3904,0.0373
0.9895,0.3806,0.0393
0.8917,0.5643,0.0666
0.884,0.5056,0.0276
0.9329,0.2986,-0.0056
1.0579,0.1598,-0.0036
1.0579,0.1598,-0.0036
1.011,0.1774,0.0647
0.9133,0.279,0.0451
0.8488,0.3298,0.0216
0.8586,0.408,0.0412
0.8586,0.408,0.0412
0.8684,0.6288,0.0276
0.8351,0.6072,-0.0056
0.6202,0.5545,-0.0036
0.3095,0.4041,0.0314
0.3095,0.4041,0.0314
0.673,0.1891,0.0412
1.183,0.0953,-0.1404
1.5952,0.2262,-0.3924
0.501,0.9375,-0.2205
0.501,0.9375,-0.2205
0.2919,0.9199,0.0373
0.5166,0.6034,-0.0564
1.0911,0.4295,-0.2713
1.1008,0.3377,-0.3847
0.7433,0.2185,-0.4296
0.5401,0.2595,-0.5409
0.5186,0.3083,-0.3905
0.3818,0.576,-0.2224
0.4169,0.5682,-0.1521
0.4853,0.5897,-0.1678
0.4443,0.6307,-0.2342
0.4267,0.6092,-0.2517
0.4932,0.5604,-0.2224
0.4932,0.5604,-0.2224
0.503,0.5878,-0.2322
0.5303,0.5818,-0.2831
0.5284,0.6776,-0.2733
0.5576,0.8027,-0.2322
0.5166,0.8535,-0.2361
0.4599,0.9532,-0.1736
0.4229,0.9101,-0.3319
0.4599,0.8964,-0.3221
0.4932,0.8808,-0.2752
0.4893,0.8769,-0.2771
0.4814,0.8477,-0.2401
0.4306,0.8319,-0.2303
0.3701,0.8417,-0.2107
0.3701,0.8417,-0.2107
0.3603,0.8633,-0.199
0.3877,0.9082,-0.1776
0.4092,0.8456,-0.1658
0.4169,0.8144,-0.158
0.3955,0.8515,-0.1658
0.3955,0.8515,-0.1658
0.3896,0.8242,-0.1502
0.3584,0.8065,-0.1131
0.3818,0.7714,-0.115
0.3759,0.8046,-0.072
0.3759,0.8046,-0.072
0.329,0.8887,-0.074
0.3623,0.918,0.0373
0.3388,0.8613,-0.0447
0.3994,0.7655,-0.2811
0.3994,0.7655,-0.2811
0.4853,0.7304,-0.6054
0.7277,0.7226,-0.5879
0.882,0.5976,-0.537
0.8039,0.7832,-0.8185
1.0794,0.6835,-0.7833
1.2533,0.6151,-0.6602
1.1927,0.6717,-0.496
0.8507,0.5389,-0.4999
0.7785,0.2164,-0.7012
0.7785,0.2164,-0.7012
0.9289,0.0387,-0.5332
0.9719,0.1032,-0.5293
0.8703,0.195,-0.6641
0.7061,0.113,-0.6993
0.7355,0.0934,-0.6856
0.8273,0.0836,-0.6914
0.7413,0.0855,-0.7442
0.6416,0.0133,-0.707
0.7706,-0.0648,-0.58
0.7706,-0.0648,-0.58
0.7843,-0.0609,-0.5723
0.5459,0.0035,-0.7324
0.6476,-0.0727,-0.7598
0.7785,-0.0687,-0.7657
0.7765,-0.0296,-0.7403
0.7471,-0.0082,-0.7911
0.7648,-0.0883,-0.7774
0.8917,-0.1468,-0.7794
0.882,-0.059,-0.795
0.8332,0.0348,-0.7246
0.9348,-0.0413,-0.6699
1.0638,-0.0453,-0.6543
1.0989,-0.0023,-0.7051
1.0286,-0.0101,-0.836
1.2748,-0.1312,-0.582
1.1927,-0.0355,-0.4315
0.8723,0.1442,-0.367
0.6534,0.1422,-0.5409
0.8312,0.0231,-0.3143
0.7921,0.0816,-0.3182
0.6964,0.195,-0.373
0.7902,0.1481,-0.3476
0.968,0.0621,-0.3905
0.9523,0.109,-0.3944
0.9015,0.1286,-0.3553
0.8253,0.2478,-0.2381
0.884,0.2849,-0.3866
0.9192,0.1754,-0.3162
0.8488,0.191,-0.3749
0.7238,0.2439,-0.5078
0.7883,0.1852,-0.4394
0.8644,0.2164,-0.5527
0.9953,0.1344,-0.41
0.8917,0.1286,-0.3143
0.7433,0.2224,-0.3866
0.5147,0.1149,-0.5566
0.9406,0.1794,-0.539
0.7843,0.3728,-0.3788
0.7471,0.4529,-0.5058
0.9641,0.4919,-0.4999
0.9739,0.449,-0.3768
0.8019,0.3806,-0.3984
0.6651,0.2595,-0.7813
0.6299,0.3845,-0.6152
0.2196,0.0289,-0.4511
1.007,0.4861,-0.6269
0.6632,0.3845,-0.4277
0.7569,0.3806,-0.328
0.7277,0.4627,-0.367
0.8507,0.619,-0.4413
0.6397,0.7949,-0.3768
0.5811,0.5721,-0.2088
0.5811,0.5721,-0.2088
0.7277,0.4959,-0.3182
0.7061,0.5056,-0.3984
0.7706,0.4432,-0.4081
0.882,0.2927,-0.3143
0.839,0.2849,-0.3436
0.8527,0.3044,-0.373
1.0012,0.0231,-0.5312
0.7745,0.2067,-0.6406
0.5538,0.4197,-0.5214
0.5771,0.6034,-0.4706
0.6124,0.5955,-0.4296
0.5752,0.6209,-0.5214
0.5322,0.6365,-0.582
0.6006,0.5428,-0.6133
0.6632,0.3982,-0.5625
0.6632,0.3982,-0.5625
0.6065,0.3631,-0.6054
0.6632,0.3337,-0.6113
0.714,0.2946,-0.6113
0.6612,0.3259,-0.6621
0.6437,0.3279,-0.6602
0.6886,0.3044,-0.6876
0.7374,0.277,-0.7168
0.7745,0.2458,-0.709
0.7355,0.2204,-0.6816
0.7081,0.2692,-0.6699
0.7081,0.2692,-0.6699
0.6924,0.3103,-0.6113
0.6553,0.361,-0.5742
0.7179,0.2262,-0.6699
0.7335,0.1833,-0.6699
0.7452,0.1324,-0.666
0.7335,0.1286,-0.625
0.6437,0.236,-0.5488
0.6651,0.2067,-0.625
0.667,0.2028,-0.6406
0.6612,0.1657,-0.6876
0.7061,0.0876,-0.625
0.669,0.1833,-0.5527
0.669,0.1833,-0.5527
0.6378,0.238,-0.6054
0.6221,0.2282,-0.6387
0.7413,-0.0199,-0.9337
0.7413,-0.0199,-0.9337
0.7413,0.0015,-0.7696
0.6866,0.0914,-0.6758
0.6065,0.1871,-0.6348
0.6241,0.1266,-0.7735
0.6768,-0.0257,-0.8497
0.7238,-0.0687,-0.7931
0.7238,-0.0727,-0.7871
0.6866,-0.0199,-0.7481
0.6866,0.0328,-0.6739
0.6358,0.0445,-0.6816
0.5929,0.025,-0.7051
0.6026,-0.0101,-0.713
0.6339,-0.0316,-0.7168
0.6397,-0.0648,-0.7774
0.6495,-0.1137,-0.7774
0.6339,-0.1019,-0.7324
0.5557,-0.0667,-0.8126
0.5381,-0.0863,-0.8555
0.5674,-0.1254,-0.8282
0.585,-0.1351,-0.8028
0.5615,-0.1156,-0.75
0.5401,-0.0727,-0.8048
0.5381,-0.0765,-0.8418
0.5322,-0.0902,-0.8966
0.5244,-0.1019,-0.8751
0.5244,-0.1078,-0.8458
0.499,-0.0667,-0.9005
0.3251,0.0621,-0.7384
0.1766,0.1931,-0.7226
0.2802,-0.0706,-1.1662
0.4346,-0.1605,-1.0588
0.333,-0.1605,-0.9473
0.2997,-0.0375,-0.7266
0.2646,0.0953,-0.7012
0.1824,0.1931,-0.8321
0.1688,0.1246,-0.9513
0.29,-0.0179,-1.053
0.3564,-0.1254,-0.9708
0.2762,0.0464,-0.8693
0.2548,0.0582,-0.965
0.2548,0.0582,-0.965
0.2704,0.0367,-0.9748
0.2762,0.0152,-1.0197
0.2978,-0.0023,-0.9904
0.5303,-0.3091,-1.1506
0.2079,0.1012,-0.6836
0.2529,-0.0003,-0.8693
0.4071,-0.1,-0.9611
0.4071,-0.1,-0.9611
0.3505,-0.0218,-0.8849
0.4229,-0.0823,-0.8595
0.4483,-0.2681,-0.9298
0.4385,-0.225,-0.8966
0.3212,-0.395,-0.838
0.3212,-0.395,-0.838
0.3896,-0.4751,-0.8067
0.3368,-0.4595,-0.75
0.1766,0.2126,-0.9317
0.0184,0.7792,-0.9317
0.0184,0.7792,-0.9317
0.0066,0.5408,-1.1487
0.034,0.4803,-0.8497
0.1297,0.4216,-0.9084
0.4287,0.1735,-0.7813
0.3349,0.0289,-0.9454
0.3173,0.0094,-0.9825
0.1591,-0.055,-0.9923
0.0887,-0.1078,-0.9571
0.1356,-0.0511,-0.922
0.1532,-0.0003,-1.008
0.4071,-0.1137,-0.9533
0.5929,-0.0531,-0.8478
0.1649,0.1168,-0.8106
-0.1926,0.107,-0.9767
0.2431,-0.1684,-0.8986
0.2431,-0.1684,-0.8986
0.202,-0.0569,-0.922
0.1591,0.0113,-0.9181
0.1942,-0.0062,-0.883
0.2274,-0.0706,-0.8555
0.2274,-0.0706,-0.8555
0.1922,-0.0902,-0.9552
0.2001,-0.1254,-0.9142
0.2059,-0.1528,-0.9279
0.2157,-0.2074,-1.1194
0.2255,-0.0863,-0.8439
0.1903,-0.0569,-0.8341
0.1512,-0.1156,-0.8693
0.2723,-0.2817,-0.9259
0.3877,-0.3833,-0.9005
0.3877,-0.3833,-0.9005
0.4111,-0.4204,-0.7969
0.3896,-0.4458,-0.6895
0.3056,-0.4321,-0.7266
0.2802,-0.483,-0.6602
0.2802,-0.483,-0.6602
0.3095,-0.5103,-0.713
0.333,-0.6842,-0.7754
0.2606,-0.692,-0.92
0.1376,-0.6666,-1.0959
0.1376,-0.6666,-1.0959
0.157,-0.6822,-1.0353
0.1728,-0.647,-0.9982
0.1356,-0.5767,-0.7969
0.0613,-0.5084,-0.7774
0.0476,-0.4868,-0.709
0.0731,-0.3482,-0.9161
0.0574,-0.2954,-0.8087
0.0711,-0.2954,-0.7559
0.118,-0.3364,-0.7676
0.1884,-0.3813,-0.7794
0.2235,-0.266,-1.0099
0.2352,-0.2876,-0.9084
0.2235,-0.3618,-0.8576
0.2411,-0.4517,-0.8732
0.2352,-0.4673,-0.8087
0.2431,-0.4771,-0.8067
0.2802,-0.4654,-0.8497
0.2646,-0.4595,-0.8536
0.2548,-0.4654,-0.8321
0.2509,-0.4654,-0.8145
0.2783,-0.4634,-0.8185
0.2704,-0.4497,-0.838
0.2294,-0.4067,-0.8732
0.2255,-0.354,-0.9005
0.202,-0.3384,-0.8516
0.1982,-0.3266,-0.8497
0.1982,-0.3188,-0.8907
0.2313,-0.3579,-0.8809
0.1922,-0.3638,-0.8536
0.1532,-0.3559,-0.8497
0.1493,-0.354,-0.8672
0.3505,-0.4321,-1.1506
0.3505,-0.4321,-1.1506
0.5128,-0.0844,-0.8888
0.1474,-0.3442,-0.8418
0.0379,-0.481,-0.8888
0.3642,-0.3638,-0.7833
0.2958,-0.3657,-0.8614
0.2958,-0.3657,-0.8614
0.2177,-0.4302,-0.8243
0.2098,-0.4067,-0.877
0.1414,-0.3931,-0.8888
0.5147,-0.4634,-0.8927
0.5147,-0.4634,-0.8927
0.501,-0.4302,-0.8516
0.204,-0.3872,-0.8693
0.1591,-0.4009,-0.838
0.1649,-0.3969,-0.8008
0.163,-0.3736,-0.8204
0.2177,-0.3579,-0.8399
0.2079,-0.3774,-0.9161
0.1278,-0.4067,-0.9317
0.1278,-0.4067,-0.9317
0.1982,-0.4537,-0.9024
0.1024,-0.3931,-0.838
0.0985,-0.4185,-0.8341
0.1824,-0.4654,-0.8849
0.1668,-0.5552,-0.8282
0.1474,-0.5436,-0.8849
0.1297,-0.4654,-0.879
0.1414,-0.4654,-0.9005
0.1747,-0.4693,-0.8751
0.2411,-0.4986,-0.8946
0.2411,-0.4986,-0.8946
0.2646,-0.5161,-0.879
0.2118,-0.4381,-0.877
0.1728,-0.3599,-0.8399
0.1864,-0.3579,-0.8282
0.2235,-0.3696,-0.7813
0.2313,-0.354,-0.7871
0.2333,-0.3559,-0.8282
0.2509,-0.395,-0.8653
0.2177,-0.4283,-0.8809
0.2255,-0.4185,-0.8751
0.245,-0.4048,-0.8555
0.2529,-0.3931,-0.8418
0.2431,-0.4048,-0.8555
0.2392,-0.4106,-0.8497
0.2235,-0.4009,-0.8653
0.2274,-0.3853,-0.8712
0.2313,-0.3774,-0.8458
0.2489,-0.3853,-0.8516
0.2606,-0.4185,-0.877
0.2489,-0.4204,-0.879
0.2371,-0.4165,-0.8536
0.2157,-0.3892,-0.8165
0.202,-0.3736,-0.7931
0.204,-0.3794,-0.8282
0.204,-0.3794,-0.8282
0.2255,-0.4263,-0.8555
0.2392,-0.4497,-0.8576
0.2255,-0.4634,-0.8555
0.2118,-0.4595,-0.8478
0.2157,-0.4595,-0.8262
0.2235,-0.44,-0.8204
0.2294,-0.44,-0.838
0.2548,-0.4673,-0.8458
0.2665,-0.4928,-0.8224
0.2665,-0.4928,-0.8224
0.288,-0.5084,-0.7969
0.3095,-0.4986,-0.8028
0.2939,-0.481,-0.8204
0.2352,-0.5025,-0.7911
0.2352,-0.5025,-0.7911
0.2313,-0.5299,-0.8165
0.245,-0.5299,-0.8341
0.2118,-0.5005,-0.8888
0.2001,-0.4537,-0.8204
0.1961,-0.4478,-0.75
0.2001,-0.4165,-0.7344
0.2215,-0.4106,-0.8185
0.245,-0.4458,-0.9084
0.204,-0.4732,-0.8672
0.1864,-0.4595,-0.8262
0.161,-0.4283,-0.7871
0.1747,-0.4009,-0.7891
0.2138,-0.4009,-0.8243
0.2294,-0.4009,-0.8458
0.2215,-0.399,-0.8614
0.2177,-0.4009,-0.8751
0.2098,-0.4283,-0.879
0.1747,-0.4321,-0.9024
0.1688,-0.4243,-0.8888
0.1688,-0.4185,-0.8576
0.1707,-0.4127,-0.8028
0.1786,-0.4067,-0.7754
0.1982,-0.4614,-0.8418
0.2255,-0.4928,-0.8555
0.2802,-0.5161,-0.8849
0.3075,-0.5201,-0.8634
0.2762,-0.4928,-0.8204
0.2411,-0.4791,-0.8106
0.2411,-0.4791,-0.8067
0.2587,-0.4947,-0.8106
0.2587,-0.4868,-0.8224
0.2235,-0.4478,-0.8418
0.2235,-0.4478,-0.8418
0.2177,-0.4497,-0.836
0.2235,-0.44,-0.8321
0.2352,-0.4204,-0.836
0.2098,-0.4048,-0.8458
0.2098,-0.4048,-0.8458
0.202,-0.4067,-0.8478
0.1884,-0.4048,-0.8458
0.2098,-0.4263,-0.8458
0.2255,-0.4575,-0.8458
0.2274,-0.4673,-0.8418
0.2313,-0.4673,-0.8439
0.2333,-0.4712,-0.8165
0.2313,-0.4693,-0.8145
0.2431,-0.4732,-0.8224
0.2469,-0.4712,-0.8262
0.2469,-0.4712,-0.8262
0.245,-0.4634,-0.8262
0.2352,-0.4556,-0.8243
0.2313,-0.4595,-0.8302
0.2274,-0.4575,-0.838
0.2215,-0.4537,-0.8418
0.2177,-0.4497,-0.8399
0.2138,-0.4478,-0.8341
0.2177,-0.436,-0.8302
0.2138,-0.4341,-0.8399
0.2177,-0.4497,-0.838
0.2177,-0.4497,-0.838
0.2196,-0.4478,-0.8418
0.2196,-0.4478,-0.838
0.2118,-0.4478,-0.8478
0.2118,-0.4556,-0.8399
0.2196,-0.4575,-0.8302
0.2235,-0.4556,-0.8321
0.2157,-0.4458,-0.8302
0.2118,-0.4517,-0.838
0.2138,-0.4654,-0.8341
0.2196,-0.4614,-0.8439
0.2177,-0.4654,-0.8418
0.2098,-0.4556,-0.8321
0.202,-0.44,-0.8321
0.202,-0.4458,-0.8399
0.2059,-0.4478,-0.8458
0.2118,-0.4458,-0.8399
0.204,-0.4517,-0.836
0.2098,-0.4478,-0.836
0.2098,-0.4478,-0.836
0.2098,-0.4439,-0.838
0.204,-0.4458,-0.8439
0.2118,-0.4517,-0.8418
0.2098,-0.4458,-0.8341
0.2059,-0.4517,-0.8399
0.2079,-0.4478,-0.836
0.2098,-0.4478,-0.8418
0.2098,-0.4478,-0.8418
0.2079,-0.4497,-0.838
0.2059,-0.4439,-0.8497
0.204,-0.4439,-0.8497
0.2079,-0.4517,-0.836
0.2001,-0.44,-0.8399
0.1961,-0.4381,-0.8418
0.2001,-0.4517,-0.8497
0.2079,-0.4439,-0.838
0.204,-0.4381,-0.8458
0.204,-0.4419,-0.8478
0.2079,-0.4556,-0.8399
0.2079,-0.4575,-0.8399
0.2098,-0.4458,-0.8399
0.2079,-0.4497,-0.8418
0.2118,-0.4497,-0.836
0.2098,-0.4458,-0.8399
0.2098,-0.4458,-0.8399
0.2098,-0.4478,-0.8439
0.2118,-0.4458,-0.8478
0.2138,-0.4497,-0.836
0.2157,-0.4419,-0.838
0.2079,-0.4419,-0.8439
0.2157,-0.4458,-0.8399
0.2196,-0.4439,-0.8399
0.2157,-0.4419,-0.8439
0.2196,-0.4419,-0.8399
0.2196,-0.4419,-0.8399
0.2235,-0.4478,-0.8418
0.2255,-0.4439,-0.8418
0.2235,-0.4458,-0.838
0.2255,-0.4419,-0.8458
0.2215,-0.436,-0.8497
0.2235,-0.4458,-0.836
0.2313,-0.4439,-0.8282
0.2333,-0.4381,-0.836
0.2333,-0.4458,-0.8341
0.2235,-0.4381,-0.8399
0.2294,-0.4341,-0.838
0.2333,-0.4439,-0.8458
0.2431,-0.4439,-0.836
0.2352,-0.436,-0.8341
0.2294,-0.436,-0.836
0.2333,-0.4419,-0.8321
0.2371,-0.4458,-0.836
0.2352,-0.4458,-0.8321
0.2411,-0.4419,-0.836
0.245,-0.4458,-0.836
0.2431,-0.4381,-0.838
0.2392,-0.4341,-0.836
0.2392,-0.4341,-0.836
0.2411,-0.4381,-0.8341
0.2431,-0.4439,-0.8399
0.2431,-0.44,-0.836
0.2411,-0.4439,-0.836
0.2431,-0.4439,-0.8341
0.2431,-0.4439,-0.8341
0.2431,-0.4439,-0.836
0.2489,-0.4419,-0.8341
0.2489,-0.44,-0.836
0.2489,-0.4439,-0.8439
0.2489,-0.4419,-0.8321
0.2509,-0.4419,-0.8302
0.2509,-0.4341,-0.8341
0.2431,-0.44,-0.836
0.2469,-0.44,-0.8341
0.2469,-0.4419,-0.8341
0.2489,-0.4419,-0.8321
0.2489,-0.4439,-0.838
0.2489,-0.4478,-0.8341
0.2509,-0.4381,-0.8478
0.2529,-0.436,-0.8224
0.2548,-0.4381,-0.836
0.2548,-0.4419,-0.836
0.2469,-0.4341,-0.8321
0.2489,-0.4321,-0.8321
0.2509,-0.4497,-0.8282
0.2529,-0.4478,-0.8302
0.2489,-0.4458,-0.8282
0.245,-0.436,-0.836
0.2489,-0.436,-0.8302
0.2529,-0.4439,-0.838
0.2529,-0.4439,-0.8341
0.2469,-0.4341,-0.836
0.2529,-0.44,-0.8341
0.2567,-0.4419,-0.8341
0.2489,-0.4381,-0.8321
0.2489,-0.4439,-0.8321
0.2469,-0.4419,-0.8341
0.2529,-0.4439,-0.836
0.2509,-0.4419,-0.838
0.2489,-0.44,-0.836
0.2489,-0.4439,-0.836
0.2469,-0.4478,-0.838
0.2509,-0.4419,-0.8341
0.2529,-0.44,-0.8399
0.2509,-0.4439,-0.8439
0.2469,-0.4458,-0.8341
0.2509,-0.4419,-0.8321
0.245,-0.436,-0.8262
0.2529,-0.44,-0.836
0.2529,-0.44,-0.836
0.2489,-0.44,-0.836
0.2431,-0.4341,-0.836
0.245,-0.4321,-0.8282
0.2567,-0.4381,-0.8439
0.2548,-0.4419,-0.8458
0.245,-0.436,-0.836
0.245,-0.4321,-0.8321
0.2469,-0.4439,-0.8341
0.2469,-0.4439,-0.8341
0.2431,-0.4419,-0.8282
0.245,-0.4381,-0.836
0.2509,-0.4439,-0.8399
0.2469,-0.4419,-0.8321
0.2469,-0.436,-0.8302
0.245,-0.44,-0.8282
0.2431,-0.436,-0.8282
0.2509,-0.436,-0.8399
0.2489,-0.436,-0.8341
0.2431,-0.44,-0.8302
0.2431,-0.44,-0.8302
0.2392,-0.436,-0.8321
0.2431,-0.4381,-0.8321
0.2431,-0.436,-0.838
0.2489,-0.436,-0.8418
0.245,-0.44,-0.838
0.2431,-0.4381,-0.8321
0.2411,-0.4381,-0.838
0.2489,-0.4321,-0.8321
0.2469,-0.4381,-0.838
0.2529,-0.4419,-0.8439
0.2469,-0.4381,-0.8341
0.245,-0.4381,-0.836
0.2469,-0.4381,-0.8321
0.2489,-0.4381,-0.836
0.2431,-0.4302,-0.8399
0.2371,-0.4243,-0.836
0.2469,-0.4302,-0.836
0.2587,-0.44,-0.8516
0.2509,-0.4381,-0.836
0.2411,-0.436,-0.8302
0.2431,-0.4341,-0.8302
0.2469,-0.4381,-0.8341
0.2469,-0.4478,-0.8418
0.245,-0.44,-0.838
0.2489,-0.4419,-0.8302
0.2529,-0.4419,-0.8399
0.2587,-0.44,-0.8321
0.2548,-0.4381,-0.836
0.2567,-0.4341,-0.8341
0.2567,-0.436,-0.8439
0.2606,-0.44,-0.836
0.2587,-0.4419,-0.836
0.2587,-0.4341,-0.8302
0.2587,-0.44,-0.838
0.2567,-0.4458,-0.836
0.2606,-0.4458,-0.8302
0.2665,-0.436,-0.8243
0.2665,-0.436,-0.8243
0.2665,-0.4419,-0.8341
0.2685,-0.4381,-0.8282
0.2723,-0.4381,-0.8302
0.2743,-0.4419,-0.8302
0.2743,-0.4439,-0.8224
0.2743,-0.4439,-0.8224
0.2762,-0.436,-0.8243
0.2783,-0.4381,-0.8243
0.2802,-0.4381,-0.8224
0.2783,-0.4381,-0.8224
0.2841,-0.436,-0.8204
0.2802,-0.4439,-0.8282
0.2802,-0.4381,-0.8185
0.2704,-0.4283,-0.8145
0.2783,-0.4302,-0.8224
0.286,-0.4419,-0.8302
0.286,-0.4381,-0.8204
0.2821,-0.4381,-0.8243
0.2783,-0.4381,-0.8204
0.2762,-0.4439,-0.8262
0.2783,-0.4478,-0.8204
0.2762,-0.44,-0.8165
0.2802,-0.4439,-0.8185
0.2802,-0.44,-0.8185
0.2783,-0.4439,-0.8185
0.2743,-0.436,-0.8185
0.2743,-0.4381,-0.8224
0.2743,-0.4439,-0.8321
0.2762,-0.4458,-0.8321
0.2704,-0.4439,-0.836
0.2646,-0.436,-0.8302
0.2704,-0.4439,-0.8302
0.2665,-0.4497,-0.8282
0.2685,-0.4439,-0.8321
0.2625,-0.44,-0.836
0.2665,-0.4419,-0.8302
0.2723,-0.4439,-0.8418
0.2685,-0.4497,-0.836
0.2646,-0.4439,-0.8302
0.2606,-0.4381,-0.836
0.2625,-0.44,-0.8302
0.2665,-0.44,-0.8302
0.2646,-0.4341,-0.836
0.2606,-0.4381,-0.8321
0.2606,-0.4381,-0.8302
0.2606,-0.4381,-0.8302
0.2625,-0.4341,-0.8302
0.2606,-0.44,-0.838
0.2529,-0.436,-0.8282
0.2587,-0.4321,-0.8282
0.2665,-0.4381,-0.8321
0.2723,-0.4381,-0.8458
0.2567,-0.4341,-0.836
0.2625,-0.4439,-0.8341
0.2685,-0.4419,-0.838
0.2646,-0.4439,-0.8418
0.2567,-0.4381,-0.8341
0.2606,-0.4341,-0.8224
0.2646,-0.4341,-0.8262
0.2646,-0.4341,-0.8321
0.2625,-0.4341,-0.8341
0.2625,-0.44,-0.8262
0.2646,-0.4341,-0.8282
0.2704,-0.4439,-0.8321
0.2646,-0.436,-0.8262
0.2587,-0.4302,-0.8243
0.2606,-0.4381,-0.8341
0.2606,-0.4381,-0.8282
0.2625,-0.4419,-0.8321
0.2625,-0.4321,-0.8224
0.2665,-0.4381,-0.8243
0.2665,-0.4381,-0.8243
0.2606,-0.4381,-0.8341
0.2587,-0.4341,-0.8282
0.2587,-0.4341,-0.8282
0.2529,-0.436,-0.8282
0.2489,-0.4321,-0.8341
0.2489,-0.4341,-0.836
0.2431,-0.436,-0.8399
0.2469,-0.4381,-0.8516
0.2489,-0.4439,-0.8439
0.2411,-0.4321,-0.8341
0.2294,-0.4243,-0.8478
0.2313,-0.4283,-0.8516
0.2392,-0.4302,-0.8536
0.2371,-0.4381,-0.8458
0.2294,-0.4302,-0.838
0.2255,-0.4204,-0.8497
0.2294,-0.4243,-0.8497
0.2255,-0.4283,-0.8478
0.2294,-0.4283,-0.8439
0.2157,-0.4243,-0.8516
0.2118,-0.4283,-0.8478
0.2196,-0.4283,-0.8458
0.2138,-0.4302,-0.8497
0.2079,-0.4204,-0.8555
0.2138,-0.4283,-0.8614
0.2157,-0.4223,-0.8536
0.2118,-0.4204,-0.8576
0.2196,-0.4243,-0.8555
0.2138,-0.4223,-0.8576
0.2157,-0.4223,-0.8497
0.2118,-0.4204,-0.8458
0.2079,-0.4223,-0.8536
0.2079,-0.4243,-0.8595
0.2098,-0.4302,-0.8497
0.2098,-0.4243,-0.8497
0.204,-0.4204,-0.8439
0.2118,-0.4263,-0.8536
0.2098,-0.4223,-0.8595
0.2098,-0.4243,-0.8555
0.2118,-0.4204,-0.8497
0.2098,-0.4204,-0.8497
0.2118,-0.4185,-0.8497
0.2157,-0.4223,-0.8555
0.2118,-0.4263,-0.8576
0.2079,-0.4243,-0.8555
0.2138,-0.4263,-0.8478
0.2118,-0.4302,-0.8555
0.2118,-0.4302,-0.8536
0.2138,-0.4283,-0.8478
0.2118,-0.4223,-0.8555
0.2118,-0.4223,-0.8555
0.2138,-0.4185,-0.8478
0.2274,-0.4204,-0.8576
0.2333,-0.4223,-0.8555
0.2235,-0.4283,-0.8516
0.2274,-0.4302,-0.8516
0.2313,-0.436,-0.8439
0.2313,-0.4341,-0.8418
0.2352,-0.4263,-0.8439
0.2333,-0.4223,-0.8399
0.2392,-0.4263,-0.838
0.245,-0.4302,-0.8418
0.2509,-0.4243,-0.8458
0.2431,-0.4302,-0.8418
0.2489,-0.4341,-0.8458
0.2529,-0.4302,-0.8439
0.2529,-0.4302,-0.8399
0.2529,-0.4263,-0.8399
0.2509,-0.436,-0.838
0.2548,-0.4321,-0.8399
0.2548,-0.4341,-0.838
0.2587,-0.4321,-0.8302
0.2567,-0.4283,-0.8341
0.2625,-0.4341,-0.8321
0.2685,-0.4381,-0.8399
0.2723,-0.436,-0.8302
0.2704,-0.436,-0.8321
0.2704,-0.4341,-0.8282
0.2704,-0.4321,-0.8282
0.2743,-0.4341,-0.8321
0.2704,-0.4321,-0.8341
0.2783,-0.4381,-0.8262
0.2783,-0.4381,-0.8262
0.2783,-0.44,-0.8262
0.2802,-0.4381,-0.8262
0.2821,-0.44,-0.8262
0.2802,-0.4341,-0.8282
0.2783,-0.4243,-0.8185
0.2802,-0.4341,-0.8185
0.286,-0.436,-0.8282
0.286,-0.4439,-0.8185
0.2802,-0.436,-0.8204
0.2762,-0.4321,-0.8224
0.2841,-0.4419,-0.8204
0.2821,-0.44,-0.8243
0.2821,-0.44,-0.8243
0.2919,-0.4439,-0.8224
0.288,-0.44,-0.8262
0.2919,-0.4439,-0.8321
0.2802,-0.436,-0.8224
0.2783,-0.44,-0.8282
0.2802,-0.4439,-0.8321
0.2802,-0.44,-0.8282
0.286,-0.4381,-0.8243
0.2802,-0.44,-0.8224
0.2762,-0.4439,-0.8302
0.2783,-0.4419,-0.8224
0.2762,-0.4419,-0.8262
0.2743,-0.436,-0.8302
0.2762,-0.4419,-0.8243
0.2841,-0.4419,-0.8224
0.2783,-0.4439,-0.8262
0.2783,-0.4381,-0.8243
0.2743,-0.4419,-0.8243
0.2783,-0.4439,-0.8185
0.2743,-0.4381,-0.8243
0.2743,-0.436,-0.8302
0.2723,-0.4381,-0.8321
0.2704,-0.4419,-0.8321
0.2743,-0.44,-0.8282
0.2743,-0.4458,-0.8224
0.2723,-0.4419,-0.8302
0.2743,-0.4419,-0.8282
0.2685,-0.436,-0.8302
0.2625,-0.4283,-0.8341
0.2685,-0.4302,-0.8302
0.2783,-0.436,-0.8418
0.2783,-0.436,-0.836
0.2606,-0.4321,-0.8282
0.2567,-0.4302,-0.8243
0.2646,-0.4321,-0.8321
0.2646,-0.4381,-0.8282
0.2606,-0.44,-0.8224
0.2606,-0.44,-0.8262
0.2646,-0.4381,-0.8262
0.2646,-0.4381,-0.8262
0.2587,-0.436,-0.8302
0.2567,-0.436,-0.838
0.2529,-0.4381,-0.8478
0.2548,-0.4478,-0.8439
0.2529,-0.4381,-0.8321
0.2529,-0.436,-0.8302
0.245,-0.436,-0.8302
0.2469,-0.44,-0.8321
0.2469,-0.44,-0.8321
0.2431,-0.4321,-0.838
0.2431,-0.4321,-0.836
0.245,-0.4341,-0.8341
0.245,-0.44,-0.8439
0.2411,-0.4439,-0.838
0.2411,-0.4439,-0.838
0.2371,-0.4381,-0.8399
0.2333,-0.4419,-0.8497
0.2294,-0.4439,-0.8399
0.2313,-0.4341,-0.8439
0.2313,-0.4341,-0.8439
0.2274,-0.44,-0.8478
0.2294,-0.4381,-0.8439
0.2274,-0.44,-0.8478
0.2274,-0.44,-0.8399
0.2196,-0.4302,-0.8458
0.2177,-0.4341,-0.8516
0.2235,-0.4381,-0.8439
0.2215,-0.4341,-0.8478
0.2294,-0.436,-0.8399
0.2157,-0.4321,-0.8418
0.2157,-0.4321,-0.8418
0.2157,-0.44,-0.8555
0.2215,-0.4458,-0.8458
0.2215,-0.4439,-0.836
0.2196,-0.44,-0.8439
0.2196,-0.44,-0.8439
0.2235,-0.44,-0.8516
0.2255,-0.44,-0.8516
0.2255,-0.4381,-0.8439
0.2177,-0.4381,-0.8516
0.2235,-0.436,-0.8458
0.2215,-0.44,-0.8439
0.2215,-0.4341,-0.8497
0.2235,-0.4321,-0.8418
0.2274,-0.44,-0.8439
0.2274,-0.44,-0.8439
0.2313,-0.4381,-0.8399
0.2294,-0.436,-0.8418
0.2313,-0.4341,-0.8399
0.2352,-0.4321,-0.8399
0.2352,-0.436,-0.8418
0.2352,-0.44,-0.8458
0.2352,-0.44,-0.838
0.2371,-0.4302,-0.8399
0.245,-0.4381,-0.8418
0.245,-0.4381,-0.8418
0.245,-0.4321,-0.836
0.2431,-0.4321,-0.838
0.2431,-0.4302,-0.8302
0.2431,-0.4302,-0.8302
0.2509,-0.4321,-0.8341
0.2489,-0.4341,-0.8341
0.245,-0.4302,-0.838
0.245,-0.4302,-0.838
0.2489,-0.4283,-0.8321
0.2567,-0.436,-0.838
0.2587,-0.4341,-0.8321
0.2529,-0.436,-0.836
0.2665,-0.4321,-0.8282
0.2665,-0.4321,-0.8282
0.2665,-0.436,-0.8262
0.2665,-0.436,-0.8262
0.2704,-0.436,-0.8282
0.2704,-0.436,-0.8282
0.2704,-0.436,-0.8282
0.2704,-0.436,-0.8282
0.2704,-0.4341,-0.8282
0.2704,-0.4341,-0.8282
0.2704,-0.4341,-0.8282
0.2704,-0.4341,-0.8282
0.2723,-0.4341,-0.8224
