accx,accy,accz
0.9523,-0.1,-0.4374
1.0794,-0.1,-0.4667
1.013,-0.0394,-0.543
0.8332,0.1403,-0.7461
0.8917,0.1109,-0.5625
0.837,0.1188,-0.5684
0.6574,0.15,-0.7012
0.5576,0.1149,-0.543
0.6397,0.068,-0.6699
0.7531,0.1051,-0.8106
0.8019,0.1598,-0.8185
0.7745,0.1363,-0.8067
0.6437,0.0191,-0.6972
0.585,0.0718,-0.9084
0.5948,0.0797,-0.9024
0.6612,0.0876,-0.7696
0.6944,0.1109,-0.8262
0.4423,0.0972,-0.713
0.4697,0.0504,-0.6171
0.5361,0.0211,-0.8497
0.4346,0.0113,-0.8008
0.5752,-0.0511,-0.8282
0.5068,-0.1351,-1.1506
0.6358,-0.2465,-1.5297
0.6358,-0.2465,-1.5297
0.7569,-0.3969,-1.2952
0.4951,-0.7018,-0.7696
0.4189,-0.606,-0.8321
0.5088,-0.5436,-0.7891
0.628,-0.7741,-0.8028
0.3975,-0.6393,-0.6993
0.3114,-0.5709,-0.7754
0.3623,-0.4087,-0.7286
0.6104,-0.3677,-0.836
0.5713,-0.4009,-0.8672
0.4502,-0.5983,-0.7774
0.2783,-0.647,-0.8341
0.4912,-0.5611,-0.8946
0.544,-0.4966,-0.9885
0.544,-0.4966,-0.9885
0.5557,-0.4634,-0.8927
0.4951,-0.4497,-0.8439
0.5068,-0.3482,-0.8868
0.503,-0.3911,-0.9845
0.503,-0.3911,-0.9845
0.1961,-0.7018,-1.1799
0.0418,-0.9754,-1.3069
-0.1379,-1.1063,-1.0822
0.034,-0.6197,-0.8732
-0.0519,-0.4595,-0.838
-0.1144,-0.4888,-0.8399
-0.2824,-0.6412,-0.7794
-0.3313,-0.5396,-0.8516
-0.261,-0.2504,-0.8185
-0.2551,-0.2602,-0.6816
-0.388,-0.2329,-0.6113
-0.5013,-0.2015,-0.6641
-0.3606,-0.2015,-0.8907
-0.2805,-0.1879,-0.9748
-0.2805,-0.1879,-0.9748
-0.3508,-0.266,-1.0002
-0.3098,-0.1938,-0.924
-0.3899,-0.3813,-0.7403
-0.3899,-0.3813,-0.7403
-0.3978,-0.3794,-0.9063
-0.3645,-0.3482,-0.7891
-0.4896,-0.2895,-0.6602
-0.304,-0.3228,-0.7617
-0.304,-0.3228,-0.7617
-0.3117,-0.3559,-0.7794
-0.3587,-0.4283,-0.7442
-0.3958,-0.4966,-0.7481
-0.4368,-0.4947,-0.6972
-0.4368,-0.4947,-0.6972
-0.4817,-0.4673,-0.6934
-0.5756,-0.4302,-0.5644
-0.3254,-0.3872,-0.754
-0.4368,-0.4595,-0.7891
-0.5033,-0.4771,-0.752
-0.5756,-0.5475,-0.709
-0.3352,-0.4029,-0.7637
-0.3176,-0.4067,-0.7657
-0.4584,-0.5123,-0.7852
-0.4935,-0.5494,-0.7891
-0.4935,-0.5494,-0.7891
-0.4877,-0.3911,-0.709
-0.3059,-0.3188,-0.6699
-0.2453,-0.3755,-0.7286
-0.4212,-0.5415,-0.75
-0.597,-0.5025,-0.7676
-0.4016,-0.5631,-0.7481
-0.3333,-0.5709,-0.7051
-0.3508,-0.5182,-0.6972
-0.302,-0.5161,-0.6602
-0.2942,-0.5142,-0.668
-0.2551,-0.5592,-0.7168
-0.091,-0.6861,-0.7422
-0.1261,-0.7272,-0.7422
-0.3587,-0.6666,-0.7481
-0.3138,-0.6491,-0.7168
-0.2551,-0.6451,-0.7246
-0.2453,-0.7038,-0.7657
-0.2141,-0.6628,-0.7442
-0.093,-0.6081,-0.7246
-0.2062,-0.647,-0.6876
-0.3313,-0.6588,-0.6972
-0.4251,-0.6803,-0.7149
-0.0558,-0.6256,-0.7012
-0.0558,-0.6256,-0.7012
-0.0851,-0.6745,-0.6953
-0.2376,-0.6999,-0.7149
-0.3939,-0.5865,-0.6699
-0.175,-0.5983,-0.7226
-0.175,-0.5983,-0.7226
-0.1867,-0.6081,-0.7363
-0.2376,-0.6666,-0.7617
-0.1906,-0.6491,-0.7246
-0.2395,-0.5963,-0.6895
-0.259,-0.5787,-0.6718
-0.2884,-0.5552,-0.6836
-0.2395,-0.5787,-0.7305
-0.1906,-0.6178,-0.7363
-0.2258,-0.6451,-0.7226
-0.2258,-0.6451,-0.7226
-0.2395,-0.6354,-0.7188
-0.2472,-0.5513,-0.713
-0.2414,-0.5436,-0.7168
-0.2316,-0.5573,-0.7246
-0.2102,-0.5806,-0.7344
-0.1867,-0.606,-0.7266
-0.1906,-0.6295,-0.7403
-0.2023,-0.6412,-0.7363
-0.1926,-0.6373,-0.7384
-0.1985,-0.6334,-0.7246
-0.2278,-0.6334,-0.7032
-0.2278,-0.6393,-0.7051
-0.2199,-0.6295,-0.707
-0.218,-0.6276,-0.709
-0.2199,-0.6432,-0.7188
-0.2278,-0.6491,-0.7246
-0.2336,-0.653,-0.7207
-0.2376,-0.6432,-0.7032
-0.2219,-0.6314,-0.709
-0.1671,-0.6178,-0.7442
-0.1594,-0.6021,-0.7384
-0.1671,-0.5885,-0.7226
-0.2297,-0.5885,-0.707
-0.263,-0.6119,-0.7207
-0.2434,-0.6139,-0.7266
-0.2121,-0.6021,-0.7032
-0.1965,-0.5983,-0.707
-0.216,-0.6119,-0.7168
-0.2219,-0.6373,-0.7246
-0.2102,-0.6314,-0.7207
-0.2102,-0.6237,-0.7207
-0.2004,-0.6178,-0.7246
-0.2102,-0.6158,-0.7168
-0.2141,-0.6197,-0.7246
-0.2102,-0.6119,-0.7344
-0.2062,-0.5963,-0.7286
-0.2023,-0.6002,-0.7266
-0.1945,-0.61,-0.7246
-0.1887,-0.6276,-0.7305
-0.1945,-0.6197,-0.7324
-0.1926,-0.606,-0.7305
-0.1965,-0.6041,-0.7363
-0.2219,-0.6139,-0.7207
-0.2258,-0.6081,-0.7266
-0.2258,-0.6081,-0.7266
-0.218,-0.606,-0.7266
-0.2102,-0.6119,-0.7305
-0.2043,-0.6139,-0.7226
-0.2043,-0.6139,-0.7226
-0.1985,-0.606,-0.7324
-0.1906,-0.5963,-0.7363
-0.1945,-0.5885,-0.7363
-0.2004,-0.5943,-0.7363
-0.1906,-0.5983,-0.7344
-0.1906,-0.5983,-0.7344
-0.1985,-0.6002,-0.7324
-0.2062,-0.6081,-0.7363
-0.2004,-0.6119,-0.7324
-0.1965,-0.61,-0.7305
-0.1965,-0.61,-0.7305
-0.2043,-0.6041,-0.7344
-0.2004,-0.6081,-0.7344
-0.1985,-0.6081,-0.7286
-0.2062,-0.606,-0.7246
-0.2062,-0.6081,-0.7305
-0.2062,-0.6119,-0.7305
-0.2023,-0.606,-0.7344
-0.1945,-0.606,-0.7344
-0.1965,-0.606,-0.7344
-0.1965,-0.606,-0.7344
-0.2023,-0.6002,-0.7266
-0.1945,-0.6041,-0.7384
-0.1985,-0.6021,-0.7384
-0.1945,-0.6041,-0.7403
-0.1985,-0.6021,-0.7324
-0.2062,-0.5943,-0.7207
-0.2023,-0.5963,-0.7286
-0.2023,-0.6021,-0.7384
-0.2023,-0.6021,-0.7324
-0.2023,-0.6002,-0.7305
-0.1985,-0.6021,-0.7324
-0.2004,-0.6041,-0.7384
-0.1985,-0.6041,-0.7324
-0.2023,-0.6041,-0.7363
-0.1985,-0.6041,-0.7324
-0.2004,-0.6041,-0.7403
-0.2004,-0.6119,-0.7384
-0.1926,-0.6041,-0.7384
-0.1926,-0.6021,-0.7422
-0.1965,-0.6021,-0.7344
-0.2004,-0.6002,-0.7344
-0.1985,-0.6041,-0.7363
-0.1985,-0.6041,-0.7363
-0.2004,-0.6021,-0.7344
-0.2023,-0.6002,-0.7344
-0.1945,-0.6021,-0.7384
-0.1985,-0.606,-0.7344
-0.1985,-0.606,-0.7344
-0.2004,-0.6041,-0.7403
-0.2043,-0.6021,-0.7344
-0.1985,-0.6041,-0.7344
-0.1965,-0.606,-0.7363
-0.2043,-0.5983,-0.7363
-0.2043,-0.5983,-0.7363
-0.2043,-0.6002,-0.7384
-0.1985,-0.6002,-0.7363
-0.1965,-0.6021,-0.7403
-0.2062,-0.6021,-0.7363
-0.2062,-0.6021,-0.7363
-0.1965,-0.606,-0.7422
-0.1945,-0.6041,-0.7363
-0.2004,-0.5963,-0.7324
-0.1965,-0.6002,-0.7324
-0.1965,-0.6041,-0.7422
-0.1965,-0.6041,-0.7384
-0.1906,-0.6021,-0.7305
-0.1945,-0.6002,-0.7344
-0.1945,-0.6041,-0.7363
-0.1965,-0.6021,-0.7384
-0.1965,-0.5983,-0.7384
-0.1985,-0.6002,-0.7324
-0.2004,-0.6041,-0.7344
-0.1965,-0.6041,-0.7363
-0.1945,-0.5963,-0.7324
-0.1926,-0.5983,-0.7324
-0.1965,-0.606,-0.7422
-0.1926,-0.5963,-0.7403
-0.1867,-0.6081,-0.7363
-0.1867,-0.6081,-0.7363
-0.1926,-0.61,-0.7384
-0.1965,-0.606,-0.7422
-0.1965,-0.6021,-0.7324
-0.1965,-0.5923,-0.7384
-0.1945,-0.5904,-0.7363
-0.1906,-0.5923,-0.7442
-0.1906,-0.5983,-0.7363
-0.1926,-0.6041,-0.7363
-0.1945,-0.6041,-0.7363
-0.1926,-0.6081,-0.7384
-0.1945,-0.6041,-0.7461
-0.1926,-0.6002,-0.7324
-0.1945,-0.6041,-0.7344
-0.1985,-0.606,-0.7403
-0.1945,-0.6021,-0.7344
-0.1945,-0.5983,-0.7461
-0.1906,-0.5983,-0.7363
-0.1848,-0.5983,-0.7384
-0.1985,-0.6041,-0.7344
-0.1985,-0.6041,-0.7344
-0.1965,-0.606,-0.7363
-0.1945,-0.6021,-0.7384
-0.1887,-0.6002,-0.7422
-0.1887,-0.6002,-0.7422
-0.1945,-0.5943,-0.7363
-0.1926,-0.5943,-0.7363
-0.1867,-0.6041,-0.7461
-0.1906,-0.6021,-0.7384
-0.1887,-0.6002,-0.7403
-0.1906,-0.5983,-0.7461
-0.1906,-0.5983,-0.7442
-0.1945,-0.6002,-0.7384
-0.1945,-0.5983,-0.7384
-0.1926,-0.6002,-0.7384
-0.1926,-0.5963,-0.7442
-0.1887,-0.6002,-0.7384
-0.1945,-0.6002,-0.7344
-0.1945,-0.6002,-0.7384
-0.1867,-0.6021,-0.7403
-0.1848,-0.6002,-0.7422
-0.1887,-0.5983,-0.7384
-0.1965,-0.5963,-0.7461
-0.1926,-0.606,-0.7384
-0.1926,-0.6002,-0.7422
-0.1848,-0.5963,-0.7422
-0.1887,-0.5943,-0.7422
-0.1985,-0.6021,-0.7363
-0.2062,-0.6002,-0.7266
-0.2062,-0.6002,-0.7266
-0.2004,-0.606,-0.7305
-0.1945,-0.6002,-0.7324
-0.1848,-0.5943,-0.7461
-0.1965,-0.5923,-0.7344
-0.1965,-0.5923,-0.7344
-0.1965,-0.6002,-0.7363
-0.1887,-0.6021,-0.7363
-0.1829,-0.606,-0.7403
-0.1848,-0.6002,-0.7403
-0.1848,-0.6002,-0.7403
-0.1848,-0.6002,-0.7363
-0.1926,-0.5923,-0.7422
-0.1867,-0.6021,-0.7422
-0.1867,-0.6021,-0.7442
-0.1867,-0.6021,-0.7442
-0.1887,-0.606,-0.7384
-0.1829,-0.606,-0.7324
-0.1906,-0.6041,-0.7363
-0.1848,-0.6002,-0.7461
-0.1848,-0.6002,-0.7461
-0.1829,-0.5983,-0.7363
-0.1848,-0.6002,-0.7363
-0.1848,-0.6002,-0.7363
-0.1887,-0.6021,-0.7363
-0.1887,-0.6021,-0.7403
-0.1867,-0.5963,-0.7442
-0.1789,-0.5983,-0.7422
-0.1887,-0.5904,-0.7481
-0.1829,-0.5963,-0.7363
-0.1829,-0.5963,-0.7363
-0.1887,-0.6021,-0.7384
-0.1906,-0.6021,-0.7384
-0.1926,-0.6021,-0.7344
-0.1848,-0.6021,-0.7384
-0.1789,-0.606,-0.7403
-0.1789,-0.606,-0.7403
-0.1789,-0.6041,-0.7403
-0.1808,-0.606,-0.7384
-0.1829,-0.6002,-0.7403
-0.1829,-0.6002,-0.7403
-0.1867,-0.6021,-0.7384
-0.1887,-0.6021,-0.7344
-0.1887,-0.5983,-0.7384
-0.1867,-0.6021,-0.7363
-0.1829,-0.5983,-0.7403
-0.1848,-0.6041,-0.7403
-0.1867,-0.606,-0.7363
-0.1867,-0.6041,-0.7384
-0.1867,-0.6002,-0.7403
-0.1887,-0.5983,-0.7344
-0.1808,-0.6021,-0.7422
-0.1789,-0.5983,-0.7461
-0.1789,-0.5983,-0.7461
-0.1906,-0.606,-0.7344
-0.1829,-0.6041,-0.7363
-0.1789,-0.6041,-0.7403
-0.1829,-0.6021,-0.7384
-0.1906,-0.6002,-0.7363
-0.1906,-0.6002,-0.7363
-0.1867,-0.6002,-0.7442
-0.1887,-0.606,-0.7384
-0.1867,-0.6119,-0.7442
-0.1808,-0.6041,-0.7286
-0.1829,-0.6041,-0.7344
-0.175,-0.6002,-0.7422
-0.1867,-0.606,-0.7286
-0.1848,-0.6021,-0.7324
-0.1829,-0.5983,-0.7384
-0.1789,-0.5983,-0.7384
-0.1789,-0.5983,-0.7384
-0.1769,-0.5963,-0.7422
-0.1848,-0.5963,-0.7403
-0.1926,-0.5943,-0.7442
-0.1848,-0.6041,-0.7422
-0.1848,-0.6041,-0.7422
-0.1808,-0.6002,-0.7363
-0.1829,-0.5983,-0.7403
-0.1829,-0.6081,-0.7422
-0.175,-0.6041,-0.7403
-0.175,-0.6041,-0.7403
-0.1829,-0.6041,-0.7384
-0.1829,-0.6021,-0.7422
-0.1789,-0.606,-0.7344
-0.1848,-0.6041,-0.7344
-0.1848,-0.6041,-0.7344
-0.1887,-0.606,-0.7363
-0.1848,-0.6041,-0.7384
-0.1829,-0.6041,-0.7422
-0.1808,-0.6002,-0.7442
-0.1789,-0.5983,-0.7481
-0.1829,-0.6041,-0.7344
-0.1829,-0.5963,-0.7403
-0.1887,-0.5963,-0.7422
-0.1887,-0.6021,-0.7403
-0.1848,-0.6021,-0.7403
-0.1867,-0.606,-0.7403
-0.1769,-0.6021,-0.7442
-0.1769,-0.6021,-0.7442
-0.1829,-0.606,-0.7363
-0.1848,-0.6081,-0.7461
-0.1789,-0.6041,-0.7403
-0.1789,-0.6021,-0.7344
-0.1769,-0.6002,-0.7384
-0.1808,-0.6002,-0.7403
-0.1887,-0.6021,-0.7442
-0.1926,-0.6021,-0.7403
-0.1887,-0.6081,-0.7442
-0.1789,-0.6041,-0.7384
-0.1789,-0.6041,-0.7384
-0.1848,-0.606,-0.7344
-0.1867,-0.5983,-0.7422
-0.1808,-0.5943,-0.7481
-0.1808,-0.5943,-0.7481
-0.1808,-0.5943,-0.7481
-0.1867,-0.5943,-0.7442
-0.1808,-0.5983,-0.7422
-0.1808,-0.5983,-0.7403
-0.1848,-0.6041,-0.7442
-0.1848,-0.6041,-0.7442
-0.1848,-0.6139,-0.7403
-0.1829,-0.6081,-0.7442
-0.1829,-0.61,-0.7461
-0.1789,-0.606,-0.7363
-0.1789,-0.6081,-0.7324
-0.1808,-0.6041,-0.7363
-0.1808,-0.606,-0.7363
-0.1829,-0.6041,-0.7344
-0.1808,-0.6002,-0.7461
-0.1789,-0.6002,-0.7384
-0.1829,-0.5963,-0.7461
-0.1789,-0.6021,-0.7442
-0.1829,-0.6002,-0.7403
-0.1789,-0.6081,-0.7384
-0.1829,-0.5983,-0.7403
-0.1829,-0.6021,-0.7422
-0.1769,-0.606,-0.7461
-0.175,-0.6002,-0.7384
-0.1808,-0.6021,-0.7344
-0.1808,-0.5983,-0.7461
-0.1808,-0.6021,-0.7384
-0.1829,-0.6002,-0.7403
-0.1829,-0.6041,-0.7422
-0.1789,-0.6041,-0.7384
-0.1848,-0.6041,-0.7403
-0.1829,-0.6041,-0.7442
-0.175,-0.6041,-0.7363
-0.1769,-0.6041,-0.7403
-0.1789,-0.6002,-0.7384
-0.1789,-0.6002,-0.7384
-0.175,-0.6021,-0.7442
-0.1867,-0.6041,-0.7403
-0.1789,-0.6002,-0.7461
-0.1808,-0.5963,-0.7403
-0.1848,-0.6021,-0.7384
-0.1769,-0.6021,-0.7384
-0.1808,-0.6041,-0.7403
-0.1808,-0.606,-0.7403
-0.1692,-0.606,-0.75
-0.1692,-0.606,-0.7442
-0.1711,-0.6041,-0.7344
-0.1887,-0.5983,-0.7442
-0.1789,-0.6041,-0.7442
-0.1789,-0.5983,-0.7442
-0.1808,-0.5983,-0.7384
-0.1789,-0.6002,-0.7384
-0.1808,-0.6002,-0.7422
-0.175,-0.6002,-0.7344
-0.1769,-0.5963,-0.7384
-0.175,-0.5983,-0.7461
-0.1769,-0.6021,-0.7403
-0.1808,-0.6002,-0.7422
-0.1789,-0.6021,-0.7403
-0.1808,-0.6021,-0.7422
-0.1769,-0.6021,-0.7403
-0.1789,-0.6041,-0.7403
-0.1808,-0.606,-0.7422
-0.1789,-0.6119,-0.7481
-0.1848,-0.61,-0.7384
-0.1829,-0.6041,-0.7403
-0.1829,-0.5983,-0.7403
-0.1789,-0.6002,-0.7384
-0.1829,-0.5983,-0.7461
-0.1769,-0.5983,-0.7422
-0.1789,-0.5983,-0.7481
-0.1731,-0.5963,-0.7442
-0.175,-0.6021,-0.7403
-0.175,-0.6021,-0.7442
-0.1848,-0.5943,-0.7403
-0.1789,-0.5983,-0.7384
-0.175,-0.5983,-0.7481
-0.1829,-0.6002,-0.7384
-0.1848,-0.6021,-0.7384
-0.1867,-0.6002,-0.7403
-0.1711,-0.606,-0.7442
-0.175,-0.606,-0.7422
-0.175,-0.5963,-0.7384
-0.1887,-0.6041,-0.7363
-0.1887,-0.6041,-0.7363
-0.1867,-0.6041,-0.7422
-0.1789,-0.6002,-0.7422
-0.1789,-0.5983,-0.7384
-0.1769,-0.5963,-0.7422
-0.1769,-0.5963,-0.7422
-0.1789,-0.5963,-0.7461
-0.1808,-0.6021,-0.7384
-0.1769,-0.5983,-0.7461
-0.1789,-0.5983,-0.7461
-0.1769,-0.5983,-0.7422
-0.1769,-0.5983,-0.7422
-0.1848,-0.6021,-0.7422
-0.1867,-0.5983,-0.7461
-0.1829,-0.6021,-0.7461
-0.1769,-0.5983,-0.7363
-0.1769,-0.5983,-0.7461
-0.1848,-0.5963,-0.7481
-0.1808,-0.5983,-0.7422
-0.175,-0.6021,-0.7422
-0.1731,-0.6041,-0.7422
-0.175,-0.5983,-0.7481
-0.1808,-0.5983,-0.7481
-0.1848,-0.6002,-0.7442
-0.1848,-0.6002,-0.7403
-0.1789,-0.6021,-0.7403
-0.1808,-0.5983,-0.7461
-0.1789,-0.5943,-0.7637
-0.1808,-0.5983,-0.75
-0.1887,-0.5923,-0.7324
-0.1711,-0.5983,-0.7559
-0.175,-0.6021,-0.75
-0.1789,-0.6041,-0.7461
-0.1789,-0.6021,-0.7422
-0.1789,-0.6002,-0.7384
-0.1789,-0.6002,-0.7384
-0.1808,-0.6021,-0.7403
-0.1848,-0.6041,-0.7422
-0.1829,-0.6021,-0.7422
-0.1789,-0.6002,-0.7442
-0.175,-0.5983,-0.7422
-0.1769,-0.5943,-0.7442
-0.175,-0.5943,-0.7442
-0.1808,-0.5923,-0.7442
-0.1692,-0.6041,-0.7442
-0.1769,-0.5963,-0.7403
-0.1808,-0.5983,-0.7442
-0.175,-0.606,-0.7422
-0.175,-0.606,-0.7422
-0.175,-0.6002,-0.7403
-0.1789,-0.5963,-0.7442
-0.1789,-0.6041,-0.7403
-0.175,-0.6021,-0.7384
-0.1789,-0.6002,-0.7403
-0.1829,-0.5983,-0.7442
-0.1808,-0.6002,-0.7461
-0.175,-0.6021,-0.7403
-0.175,-0.5963,-0.7403
-0.1769,-0.5983,-0.7384
-0.1789,-0.6041,-0.7461
-0.1789,-0.6041,-0.7461
-0.1731,-0.5983,-0.7403
-0.175,-0.5963,-0.7422
-0.1808,-0.6002,-0.7422
-0.1789,-0.6021,-0.7442
-0.1789,-0.6021,-0.7442
-0.1711,-0.6002,-0.7442
-0.1711,-0.6021,-0.7442
-0.1769,-0.6041,-0.7442
-0.1671,-0.6002,-0.7403
-0.1867,-0.6021,-0.7344
-0.1848,-0.6021,-0.7384
-0.1848,-0.6041,-0.7403
-0.1769,-0.6041,-0.7461
-0.1731,-0.6021,-0.7422
-0.1731,-0.6021,-0.7422
-0.1731,-0.5983,-0.7461
-0.1731,-0.6002,-0.7461
-0.1731,-0.6002,-0.7403
-0.1769,-0.6002,-0.7461
-0.1789,-0.6002,-0.7403
-0.1769,-0.5963,-0.7461
-0.1769,-0.5943,-0.7461
-0.1789,-0.5963,-0.7422
-0.1829,-0.6002,-0.7422
-0.1789,-0.5983,-0.7403
-0.1731,-0.5983,-0.7442
-0.175,-0.6041,-0.7403
-0.175,-0.6041,-0.7403
-0.1789,-0.6041,-0.7422
-0.1808,-0.606,-0.7442
-0.1789,-0.5983,-0.7461
-0.1711,-0.6041,-0.7403
-0.1808,-0.6021,-0.7442
-0.1808,-0.5983,-0.7442
-0.1808,-0.5983,-0.7442
-0.1769,-0.6002,-0.7384
-0.1789,-0.5943,-0.7422
-0.175,-0.5983,-0.7442
-0.1789,-0.5983,-0.7442
-0.1829,-0.6002,-0.7422
-0.1769,-0.6002,-0.7422
-0.1731,-0.606,-0.7403
-0.1769,-0.5963,-0.7442
-0.175,-0.6041,-0.7363
-0.175,-0.5983,-0.7403
-0.1808,-0.5904,-0.7363
-0.1848,-0.6021,-0.7481
-0.1789,-0.5983,-0.7422
-0.1789,-0.5983,-0.7422
-0.1769,-0.5983,-0.7384
-0.1769,-0.5983,-0.7481
-0.1769,-0.6081,-0.7403
-0.1808,-0.606,-0.7403
-0.1769,-0.5983,-0.7403
-0.1769,-0.6041,-0.7442
-0.1731,-0.6021,-0.7403
-0.1789,-0.5983,-0.7403
-0.1769,-0.5983,-0.7403
-0.1808,-0.6002,-0.7422
-0.1829,-0.5963,-0.7442
-0.1789,-0.5963,-0.7384
-0.175,-0.5983,-0.7363
-0.1789,-0.6002,-0.7384
-0.1829,-0.5963,-0.7422
-0.1769,-0.6021,-0.7422
-0.1769,-0.6021,-0.7422
-0.175,-0.6002,-0.7442
-0.1789,-0.6021,-0.7422
-0.1808,-0.6041,-0.7461
-0.1789,-0.6002,-0.7442
-0.1789,-0.6002,-0.7442
-0.1711,-0.6002,-0.7481
-0.1769,-0.6002,-0.7403
-0.1867,-0.6002,-0.7384
-0.1867,-0.6041,-0.7442
-0.1731,-0.6021,-0.7403
-0.1711,-0.606,-0.7422
-0.1769,-0.6041,-0.7422
-0.1769,-0.6041,-0.7422
-0.1808,-0.5983,-0.7403
-0.175,-0.5923,-0.7384
-0.1789,-0.5827,-0.7481
-0.1769,-0.5983,-0.7461
-0.1769,-0.5983,-0.7422
-0.1808,-0.6002,-0.7403
-0.175,-0.5983,-0.7442
-0.1789,-0.6081,-0.7442
-0.1808,-0.61,-0.7324
-0.1808,-0.61,-0.7324
-0.1829,-0.6119,-0.7344
-0.1789,-0.61,-0.7442
-0.1731,-0.6021,-0.7403
-0.1769,-0.6021,-0.7384
-0.175,-0.5963,-0.7403
-0.175,-0.5983,-0.7363
-0.1769,-0.6021,-0.7442
-0.1829,-0.5983,-0.7403
-0.1789,-0.6021,-0.7442
-0.1769,-0.5983,-0.7422
-0.1789,-0.6002,-0.7422
-0.1769,-0.6002,-0.7384
-0.1769,-0.5963,-0.7461
-0.1769,-0.6021,-0.7384
-0.175,-0.6002,-0.7442
-0.175,-0.6081,-0.7384
-0.1769,-0.606,-0.7442
-0.1731,-0.606,-0.7363
-0.1808,-0.6041,-0.7422
-0.1769,-0.606,-0.752
-0.1731,-0.606,-0.7442
-0.1711,-0.6041,-0.7384
-0.1789,-0.6041,-0.7403
-0.175,-0.6041,-0.7384
-0.175,-0.606,-0.7384
-0.1692,-0.6021,-0.7403
-0.1711,-0.6021,-0.7384
-0.175,-0.5963,-0.7384
-0.175,-0.5963,-0.7384
-0.1829,-0.6021,-0.7403
-0.1769,-0.5983,-0.7363
-0.1711,-0.606,-0.7422
-0.1731,-0.6041,-0.7422
-0.1731,-0.6041,-0.7422
-0.1808,-0.6041,-0.7363
-0.175,-0.6021,-0.7461
-0.1711,-0.606,-0.7422
-0.1769,-0.606,-0.7384
-0.1769,-0.606,-0.7384
-0.1769,-0.6021,-0.7461
-0.1711,-0.6002,-0.7422
-0.1808,-0.6041,-0.7422
-0.1789,-0.6021,-0.7384
-0.1789,-0.6021,-0.7344
-0.175,-0.606,-0.7422
-0.1769,-0.6021,-0.7422
-0.175,-0.6002,-0.7403
-0.1769,-0.6041,-0.7422
-0.175,-0.6021,-0.7403
-0.1692,-0.6002,-0.7384
-0.1769,-0.6041,-0.7461
-0.175,-0.6041,-0.7461
-0.1789,-0.6041,-0.7442
-0.175,-0.606,-0.7442
-0.175,-0.6021,-0.7384
-0.1731,-0.6021,-0.7461
-0.1808,-0.606,-0.7422
-0.1769,-0.6041,-0.7403
-0.175,-0.6002,-0.7384
-0.175,-0.6041,-0.7403
-0.1789,-0.6002,-0.7363
-0.1769,-0.5983,-0.7422
-0.1769,-0.6021,-0.7442
-0.1731,-0.6041,-0.7422
-0.175,-0.6002,-0.7481
-0.175,-0.6002,-0.7422
-0.1769,-0.5983,-0.7442
-0.1867,-0.61,-0.7344
-0.1867,-0.61,-0.7344
-0.1829,-0.6021,-0.7384
-0.1731,-0.6041,-0.7461
-0.175,-0.606,-0.7403
-0.1692,-0.6021,-0.7442
-0.1692,-0.6021,-0.7442
-0.175,-0.6002,-0.7344
-0.1808,-0.6081,-0.7403
-0.1769,-0.6081,-0.7403
-0.1769,-0.606,-0.7422
-0.1769,-0.606,-0.7422
-0.175,-0.6081,-0.7461
-0.1789,-0.6041,-0.7363
-0.1769,-0.6002,-0.7363
-0.1711,-0.6021,-0.7461
-0.1711,-0.6021,-0.7461
-0.1731,-0.5963,-0.7403
-0.1769,-0.6021,-0.7422
-0.1789,-0.6021,-0.7422
-0.175,-0.6021,-0.7363
-0.1769,-0.606,-0.7403
-0.1789,-0.6041,-0.7442
-0.1769,-0.6021,-0.7403
-0.175,-0.606,-0.7363
-0.1692,-0.6002,-0.7461
-0.175,-0.6041,-0.7384
-0.1769,-0.6002,-0.7422
-0.175,-0.6002,-0.7422
-0.1731,-0.6021,-0.7442
-0.1769,-0.6021,-0.7442
-0.175,-0.5983,-0.7442
-0.1711,-0.6002,-0.7422
-0.1711,-0.6041,-0.7384
-0.175,-0.6021,-0.7422
-0.175,-0.6002,-0.7363
-0.1808,-0.61,-0.7422
-0.1789,-0.606,-0.7461
-0.1808,-0.606,-0.7384
-0.1808,-0.6041,-0.7384
-0.1769,-0.6021,-0.7403
-0.175,-0.5983,-0.7384
-0.1711,-0.6002,-0.7481
-0.1731,-0.6002,-0.7403
-0.175,-0.6081,-0.7403
-0.175,-0.6021,-0.7442
-0.1731,-0.6041,-0.7384
-0.175,-0.6002,-0.7363
-0.1769,-0.606,-0.7442
-0.1808,-0.6021,-0.7481
-0.1789,-0.606,-0.7422
-0.1769,-0.6021,-0.7384
-0.1731,-0.6021,-0.7403
-0.1731,-0.6021,-0.7403
-0.1731,-0.6041,-0.7422
-0.1769,-0.6021,-0.7442
-0.1769,-0.6021,-0.7442
-0.1692,-0.6021,-0.7403
-0.1731,-0.6041,-0.7403
-0.1789,-0.6021,-0.7442
-0.175,-0.6021,-0.7422
-0.175,-0.6021,-0.7422
-0.175,-0.6021,-0.7442
-0.175,-0.5983,-0.7442
-0.175,-0.6002,-0.7422
-0.175,-0.6021,-0.7403
-0.175,-0.5983,-0.7384
-0.175,-0.606,-0.7422
-0.1769,-0.6021,-0.7422
-0.175,-0.6041,-0.7422
-0.1711,-0.6041,-0.75
-0.1711,-0.6041,-0.75
-0.1711,-0.6002,-0.7422
-0.1769,-0.5983,-0.7344
-0.1769,-0.6021,-0.7384
-0.1769,-0.606,-0.7384
-0.1769,-0.606,-0.7403
-0.175,-0.6021,-0.7363
-0.1789,-0.6041,-0.7403
-0.1731,-0.6041,-0.7442
-0.1731,-0.6041,-0.7442
-0.1731,-0.5943,-0.7422
-0.1769,-0.6021,-0.7461
-0.1769,-0.6041,-0.7403
-0.1731,-0.5983,-0.7422
-0.1731,-0.5983,-0.7422
-0.175,-0.5943,-0.7422
-0.1808,-0.6041,-0.7422
-0.1789,-0.6041,-0.7481
-0.1731,-0.6021,-0.7363
-0.1731,-0.6021,-0.7363
-0.1731,-0.6002,-0.7442
-0.1731,-0.6041,-0.7403
-0.1711,-0.6021,-0.7442
-0.175,-0.6041,-0.7422
-0.1769,-0.6041,-0.7403
-0.1711,-0.6021,-0.7442
-0.1731,-0.5983,-0.7442
-0.175,-0.6021,-0.7403
-0.1789,-0.606,-0.7442
-0.1789,-0.6021,-0.7442
-0.175,-0.6021,-0.7403
-0.1731,-0.6041,-0.7461
-0.1731,-0.6041,-0.7403
-0.1731,-0.5983,-0.7403
-0.1808,-0.5983,-0.7324
-0.1789,-0.6041,-0.7442
-0.175,-0.6041,-0.7461
-0.1769,-0.6041,-0.7403
-0.1808,-0.5983,-0.7403
-0.1808,-0.5983,-0.7403
-0.1829,-0.6002,-0.7384
-0.1789,-0.606,-0.7403
-0.1633,-0.5983,-0.7403
-0.1633,-0.5983,-0.7403
-0.1613,-0.5963,-0.7363
-0.1945,-0.5923,-0.7461
-0.1906,-0.5963,-0.7461
-0.1789,-0.5943,-0.75
-0.1769,-0.5943,-0.7344
-0.1769,-0.5943,-0.7344
-0.175,-0.6021,-0.7422
-0.1711,-0.6002,-0.7422
-0.1808,-0.606,-0.7384
-0.1867,-0.606,-0.7363
-0.1906,-0.6081,-0.7384
-0.1867,-0.5943,-0.7442
-0.175,-0.6002,-0.7384
-0.1711,-0.6041,-0.7422
-0.1829,-0.606,-0.7344
-0.1848,-0.5983,-0.7461
-0.1808,-0.6041,-0.7422
-0.1769,-0.6002,-0.7422
-0.1671,-0.5963,-0.7422
-0.1692,-0.5983,-0.7442
-0.1711,-0.6021,-0.7403
-0.175,-0.6002,-0.7403
-0.175,-0.6021,-0.7442
-0.1848,-0.606,-0.7422
-0.1867,-0.606,-0.7384
-0.1808,-0.6021,-0.7403
-0.1692,-0.5943,-0.7324
-0.1671,-0.5963,-0.7384
-0.1848,-0.6041,-0.7442
-0.1887,-0.5904,-0.7344
-0.1848,-0.5865,-0.7246
-0.1692,-0.5923,-0.7305
-0.1633,-0.6021,-0.7422
-0.1789,-0.6295,-0.7286
-0.218,-0.6393,-0.7461
-0.218,-0.6393,-0.7461
-0.261,-0.6237,-0.7559
-0.2395,-0.6041,-0.7403
-0.2844,-0.653,-0.7305
-0.2844,-0.653,-0.7305
-0.302,-0.6686,-0.7384
-0.2766,-0.647,-0.7481
-0.2981,-0.5923,-0.709
-0.3059,-0.5709,-0.7305
-0.3098,-0.5533,-0.7226
-0.3196,-0.5279,-0.7324
-0.3529,-0.4868,-0.7226
-0.3431,-0.4732,-0.7305
-0.3333,-0.4791,-0.7324
-0.2747,-0.5025,-0.7109
-0.2884,-0.5259,-0.7188
-0.3782,-0.5299,-0.7149
-0.2766,-0.5475,-0.754
-0.257,-0.5182,-0.7384
-0.2981,-0.4986,-0.707
-0.3724,-0.5592,-0.7715
-0.3997,-0.565,-0.7461
-0.3333,-0.5827,-0.7109
-0.2532,-0.5513,-0.7715
-0.3059,-0.4771,-0.752
-0.3469,-0.5103,-0.6718
-0.3176,-0.5709,-0.7363
-0.2726,-0.5631,-0.7676
-0.2766,-0.5182,-0.7715
-0.3978,-0.5963,-0.7363
-0.3469,-0.5475,-0.713
-0.2532,-0.5513,-0.7363
-0.1985,-0.5045,-0.7637
-0.2336,-0.5475,-0.7324
-0.2493,-0.5709,-0.7617
-0.2414,-0.5767,-0.7617
-0.2414,-0.5709,-0.7344
-0.3001,-0.5436,-0.7109
-0.302,-0.5357,-0.7324
-0.2688,-0.5005,-0.5116
-0.345,-0.5396,-0.7754
-0.3313,-0.5748,-0.713
-0.304,-0.5123,-0.7226
-0.2922,-0.5494,-0.7403
-0.2922,-0.5494,-0.7403
-0.3059,-0.61,-0.7188
-0.4193,-0.6803,-0.6348
-0.3821,-0.565,-0.6543
-0.3254,-0.5455,-0.6953
-0.3743,-0.5631,-0.7384
-0.4563,-0.61,-0.7403
-0.304,-0.6451,-0.6602
-0.2805,-0.5552,-0.6562
-0.3548,-0.5436,-0.6445
-0.3567,-0.5415,-0.6445
-0.3138,-0.5318,-0.7012
-0.2336,-0.5299,-0.8106
-0.3001,-0.5259,-0.7384
-0.3508,-0.5865,-0.6308
-0.3508,-0.5865,-0.6308
-0.3567,-0.6686,-0.6797
-0.3371,-0.6822,-0.6562
-0.4212,-0.6139,-0.7246
-0.2903,-0.5611,-0.6641
-0.2668,-0.5631,-0.7109
-0.3274,-0.6491,-0.7715
-0.3313,-0.6334,-0.6231
-0.3665,-0.6217,-0.6348
-0.3802,-0.5963,-0.6641
-0.3529,-0.5377,-0.666
-0.261,-0.5513,-0.7559
-0.2043,-0.5885,-0.709
-0.3196,-0.5885,-0.7207
-0.3704,-0.5669,-0.6465
-0.2903,-0.6314,-0.7012
-0.2766,-0.6959,-0.7617
-0.302,-0.6999,-0.7871
-0.3098,-0.5552,-0.6465
-0.2766,-0.5611,-0.6876
-0.2766,-0.5611,-0.6876
-0.1965,-0.6021,-0.7109
-0.1867,-0.6276,-0.7735
-0.2707,-0.6314,-0.6934
-0.3274,-0.6608,-0.6231
-0.2747,-0.6314,-0.6328
-0.1692,-0.61,-0.6367
-0.2532,-0.5983,-0.6816
-0.2922,-0.6197,-0.7813
-0.304,-0.6139,-0.7794
-0.1731,-0.6334,-0.8516
-0.1242,-0.61,-0.8399
