accx,accy,accz
0.9816,0.2849,-0.0193
0.9699,0.2282,-0.0427
0.9465,0.2341,-0.072
0.9445,0.2282,-0.1169
0.9465,0.1852,-0.1365
0.8586,0.2672,-0.0486
1.0051,0.2595,-0.0994
0.9387,0.2595,-0.1462
0.8761,0.1461,-0.0681
0.7687,0.1168,0.1076
0.7823,0.1363,0.1585
0.8547,0.1344,0.1487
0.9054,0.2868,0.3069
0.9797,0.2164,0.2894
0.882,0.109,0.0764
0.8488,0.0543,0.047
1.0305,0.0464,0.0724
1.0207,0.0211,0.1565
0.9583,0.0133,0.2738
1.0931,0.1813,0.3734
1.1341,0.1989,0.1096
1.0931,0.1852,0.1272
0.8625,0.1442,0.1565
0.7706,0.191,0.1487
0.7471,0.2458,0.1995
0.7471,0.2399,0.1937
0.7785,0.1657,0.0354
0.7785,0.1657,0.0354
0.8332,0.1324,0.0822
0.8879,0.109,0.1683
1.0461,0.2243,0.1976
1.1145,0.195,0.0861
1.1145,0.195,0.0861
1.1458,0.1461,0.0588
1.0735,0.2301,0.1057
0.966,0.2732,0.0842
0.9504,0.2145,0.0276
0.9504,0.2145,0.0276
0.9856,0.2282,0.0666
1.1029,0.3454,0.135
1.1165,0.3494,0.1018
1.0501,0.3415,0.1174
1.0032,0.3122,0.135
0.9836,0.279,0.1096
1.0149,0.2751,0.0686
1.0501,0.2634,0.0549
1.0012,0.2849,0.1057
0.9797,0.3122,0.0901
0.9778,0.3103,0.0744
0.9856,0.2907,0.0666
0.9876,0.277,0.0237
1.013,0.2555,0.0158
1.0715,0.2262,0.0178
1.1224,0.2282,0.0002
1.1419,0.2458,-0.0173
1.1029,0.2966,-0.0212
1.0579,0.3161,-0.0349
1.054,0.2751,-0.0603
1.0286,0.2555,-0.0544
0.9953,0.2341,-0.0701
0.9934,0.2497,-0.0935
0.9504,0.2458,-0.0896
0.9485,0.2458,-0.0954
0.9426,0.2478,-0.0954
0.9426,0.2536,-0.1092
0.9972,0.238,-0.0994
1.0051,0.2341,-0.0877
1.0051,0.2341,-0.0877
0.9895,0.2224,-0.0994
0.9797,0.1969,-0.0935
0.9719,0.191,-0.0779
0.9758,0.1715,-0.0681
0.9758,0.1715,-0.0681
0.9797,0.1794,-0.0368
0.9426,0.1774,-0.0544
0.968,0.1852,-0.0994
1.0032,0.1852,-0.1013
1.013,0.1754,-0.0877
0.9719,0.1735,-0.1169
0.9719,0.1774,-0.1326
0.9641,0.1852,-0.156
0.9719,0.1617,-0.1834
0.9895,0.1481,-0.1932
0.9934,0.1403,-0.2147
0.968,0.1442,-0.203
0.9465,0.1559,-0.2224
0.9641,0.1344,-0.2263
0.9836,0.1305,-0.2088
0.9797,0.1403,-0.203
0.9348,0.1403,-0.2303
0.9133,0.107,-0.2771
0.9485,0.0778,-0.2987
0.9583,0.0718,-0.2967
0.9621,0.0758,-0.3162
0.9543,0.0699,-0.3221
0.9387,0.0562,-0.326
0.9192,0.0133,-0.3572
0.8859,0.0035,-0.371
0.9015,0.0152,-0.3905
0.9562,-0.0062,-0.4003
0.9778,0.0073,-0.3807
0.9152,0.0367,-0.3378
0.9367,-0.012,-0.3847
0.9699,-0.0569,-0.4022
0.9211,-0.0218,-0.3905
0.9348,0.0035,-0.3651
0.9348,0.0035,-0.3651
0.9308,0.0211,-0.3456
0.9289,0.0073,-0.3768
0.9367,-0.0023,-0.4198
0.9269,0.0094,-0.4061
0.9269,0.0094,-0.4061
0.9192,0.0094,-0.3984
0.9152,0.0113,-0.3944
0.9171,0.0152,-0.3944
0.9289,0.0152,-0.3984
0.9231,0.0191,-0.3963
0.9075,0.0191,-0.3827
0.9269,0.0113,-0.367
0.9329,0.0171,-0.3572
0.9269,0.025,-0.3572
0.9269,0.025,-0.3572
0.9308,0.0191,-0.371
0.9269,0.0094,-0.371
0.9367,0.0073,-0.3749
0.9329,0.0054,-0.3612
0.9211,0.0171,-0.369
0.9171,0.0231,-0.371
0.9171,0.0231,-0.3749
0.9211,0.0211,-0.367
0.9269,0.0191,-0.3768
0.925,0.0152,-0.3788
0.9211,0.0211,-0.3807
0.9113,0.0211,-0.3807
0.9152,0.0152,-0.3807
0.9269,0.0171,-0.371
0.9289,0.0191,-0.3612
0.9231,0.0171,-0.371
0.9231,0.0152,-0.373
0.9387,0.0171,-0.3788
0.9308,0.0269,-0.367
0.9171,0.0289,-0.3632
0.9211,0.025,-0.371
0.925,0.0211,-0.371
0.9269,0.0171,-0.3572
0.9192,0.0191,-0.3612
0.9133,0.0113,-0.3768
0.9269,0.0094,-0.3749
0.9308,0.0171,-0.3749
0.9289,0.0231,-0.371
0.925,0.0289,-0.3749
0.9308,0.0191,-0.3768
0.925,0.0211,-0.369
0.9231,0.0211,-0.3749
0.9231,0.0211,-0.371
0.9269,0.0269,-0.3768
0.9269,0.0269,-0.3768
0.9192,0.0171,-0.3749
0.9231,0.0113,-0.3788
0.9289,0.0133,-0.3807
0.9231,0.0191,-0.3749
0.9171,0.0211,-0.3788
0.9152,0.0231,-0.3768
0.9329,0.0269,-0.3593
0.9387,0.0328,-0.3593
0.9308,0.0406,-0.371
0.925,0.0387,-0.3807
0.925,0.025,-0.3847
0.925,0.0211,-0.373
0.9192,0.0231,-0.369
0.9269,0.0211,-0.371
0.9269,0.0211,-0.371
0.9269,0.0328,-0.3651
0.9329,0.0328,-0.3632
0.9269,0.0308,-0.369
0.9387,0.0367,-0.3632
0.9269,0.0406,-0.3572
0.9211,0.0328,-0.3632
0.9269,0.0308,-0.371
0.925,0.0231,-0.373
0.925,0.025,-0.369
0.925,0.025,-0.369
0.9289,0.0269,-0.367
0.925,0.0308,-0.3651
0.9211,0.0348,-0.367
0.9269,0.0328,-0.3651
0.9269,0.0328,-0.3651
0.9231,0.0387,-0.3612
0.9231,0.0348,-0.3632
0.9308,0.0308,-0.371
0.9231,0.0308,-0.371
0.9329,0.0289,-0.369
0.9308,0.0269,-0.371
0.925,0.0231,-0.371
0.9308,0.0328,-0.3612
0.9289,0.0308,-0.3632
0.925,0.0328,-0.371
0.9289,0.0269,-0.369
0.9289,0.0308,-0.367
0.9367,0.0426,-0.3612
0.9367,0.0426,-0.3612
0.9348,0.0445,-0.3593
0.9348,0.0406,-0.3593
0.9289,0.0367,-0.3612
0.9289,0.0387,-0.3612
0.9289,0.0387,-0.3612
0.9308,0.0367,-0.3632
0.9308,0.0406,-0.3612
0.9269,0.0406,-0.3572
0.9308,0.0406,-0.3553
0.9329,0.0426,-0.3572
0.9329,0.0445,-0.3572
0.9289,0.0367,-0.367
0.9289,0.0367,-0.3593
0.9289,0.0387,-0.3534
0.9348,0.0464,-0.3553
0.9269,0.0445,-0.3612
0.9269,0.0464,-0.3612
0.9269,0.0485,-0.3632
0.9308,0.0445,-0.3553
0.9308,0.0426,-0.3514
0.9269,0.0464,-0.3553
0.925,0.0485,-0.3572
0.9269,0.0504,-0.3593
0.9289,0.0445,-0.3593
0.9308,0.0485,-0.3593
0.9289,0.0445,-0.3612
0.9269,0.0504,-0.3553
0.9192,0.0426,-0.3534
0.9348,0.0426,-0.3572
0.9329,0.0464,-0.3572
0.9269,0.0464,-0.3572
0.9308,0.0464,-0.3612
0.9348,0.0445,-0.3534
0.9329,0.0426,-0.3534
0.9269,0.0464,-0.3612
0.9269,0.0445,-0.3593
0.9289,0.0426,-0.3593
0.9329,0.0445,-0.3593
0.925,0.0485,-0.3553
0.9231,0.0464,-0.3572
0.9269,0.0464,-0.3553
0.9329,0.0464,-0.3612
0.9329,0.0523,-0.3534
0.9348,0.0426,-0.3572
0.9269,0.0523,-0.3553
0.9308,0.0445,-0.3593
0.925,0.0426,-0.3572
0.925,0.0464,-0.3593
0.9308,0.0523,-0.3593
0.9289,0.0464,-0.3593
0.9269,0.0523,-0.3572
0.9231,0.0504,-0.3593
0.9308,0.0464,-0.3593
0.9308,0.0464,-0.3593
0.9269,0.0445,-0.3612
0.9231,0.0464,-0.3593
0.9289,0.0485,-0.3572
0.9308,0.0464,-0.3572
0.9308,0.0445,-0.3612
0.9308,0.0445,-0.3612
0.9269,0.0485,-0.3572
0.9289,0.0504,-0.3553
0.9329,0.0485,-0.367
0.925,0.0464,-0.3612
0.925,0.0464,-0.3612
0.9269,0.0504,-0.3572
0.9387,0.0523,-0.3553
0.9308,0.0445,-0.3572
0.9308,0.0445,-0.3572
0.9269,0.0445,-0.3632
0.9289,0.0464,-0.3534
0.9308,0.0485,-0.3612
0.9308,0.0464,-0.3593
0.9308,0.0523,-0.3593
0.925,0.0504,-0.3593
0.9269,0.0485,-0.3612
0.9231,0.0445,-0.3612
0.9289,0.0464,-0.3612
0.9308,0.0485,-0.3632
0.9308,0.0485,-0.3612
0.9289,0.0485,-0.3593
0.9289,0.0445,-0.3593
0.9289,0.0485,-0.3612
0.9269,0.0464,-0.3612
0.9269,0.0464,-0.3612
0.9231,0.0543,-0.3572
0.9308,0.0504,-0.3612
0.9329,0.0485,-0.3651
0.9308,0.0464,-0.367
0.9269,0.0464,-0.3612
0.9289,0.0464,-0.3632
0.9289,0.0464,-0.3632
0.925,0.0504,-0.3612
0.9289,0.0485,-0.3612
0.9289,0.0464,-0.3593
0.9269,0.0485,-0.3632
0.9269,0.0523,-0.3553
0.9231,0.0523,-0.3593
0.9308,0.0504,-0.3612
0.9308,0.0504,-0.3612
0.9308,0.0543,-0.3612
0.9289,0.0485,-0.3632
0.925,0.0485,-0.3632
0.9269,0.0485,-0.369
0.925,0.0406,-0.369
0.9289,0.0464,-0.3612
0.9289,0.0504,-0.3593
0.9289,0.0504,-0.3651
0.9211,0.0464,-0.3632
0.9211,0.0464,-0.3632
0.9269,0.0485,-0.3632
0.9269,0.0464,-0.3632
0.925,0.0485,-0.369
0.9308,0.0504,-0.3651
0.9231,0.0504,-0.3632
0.925,0.0523,-0.371
0.9269,0.0485,-0.3632
0.925,0.0464,-0.367
0.925,0.0464,-0.367
0.9308,0.0445,-0.3632
0.9269,0.0464,-0.367
0.9289,0.0504,-0.3651
0.9289,0.0485,-0.3651
0.9289,0.0523,-0.367
0.9269,0.0485,-0.3651
0.9269,0.0445,-0.371
0.9308,0.0504,-0.369
0.9231,0.0485,-0.3632
0.9289,0.0504,-0.367
0.9289,0.0485,-0.367
0.9231,0.0485,-0.373
0.925,0.0485,-0.367
0.925,0.0485,-0.3632
0.925,0.0485,-0.3632
0.9308,0.0485,-0.3632
0.9329,0.0464,-0.3651
0.9269,0.0485,-0.3593
0.9308,0.0464,-0.3612
0.9308,0.0464,-0.3651
0.9231,0.0504,-0.3651
0.925,0.0504,-0.3651
0.9269,0.0464,-0.3632
0.9269,0.0485,-0.367
0.9269,0.0485,-0.367
0.9269,0.0485,-0.369
0.9231,0.0504,-0.367
0.9231,0.0504,-0.371
0.9269,0.0464,-0.369
0.9269,0.0464,-0.369
0.9308,0.0445,-0.369
0.9171,0.0504,-0.367
0.9192,0.0523,-0.371
0.925,0.0485,-0.3651
0.9269,0.0485,-0.369
0.9269,0.0504,-0.3612
0.9269,0.0504,-0.3632
0.925,0.0504,-0.3651
0.9269,0.0504,-0.3651
0.9269,0.0504,-0.3651
0.925,0.0523,-0.3612
0.9289,0.0523,-0.367
0.9231,0.0523,-0.371
0.9289,0.0523,-0.3651
0.9211,0.0504,-0.369
0.925,0.0523,-0.369
0.925,0.0504,-0.367
0.9269,0.0523,-0.371
0.9231,0.0523,-0.367
0.9211,0.0504,-0.369
0.925,0.0485,-0.373
0.9289,0.0543,-0.369
0.9231,0.0445,-0.367
0.9269,0.0504,-0.371
0.9269,0.0485,-0.367
0.9308,0.0464,-0.369
0.925,0.0504,-0.3651
0.9231,0.0523,-0.3593
0.925,0.0485,-0.369
0.925,0.0504,-0.3612
0.9269,0.0504,-0.367
0.9269,0.0464,-0.3651
0.9269,0.0464,-0.3651
0.9231,0.0543,-0.367
0.9289,0.0464,-0.371
0.9231,0.0523,-0.367
0.9308,0.0464,-0.371
0.9269,0.0485,-0.371
0.9231,0.0523,-0.373
0.9289,0.0523,-0.371
0.925,0.0485,-0.373
0.9192,0.0523,-0.373
0.9211,0.0504,-0.3768
0.9231,0.0445,-0.373
0.9231,0.0445,-0.373
0.925,0.0387,-0.373
0.9289,0.0464,-0.3612
0.9269,0.0445,-0.3632
0.9308,0.0504,-0.367
0.9308,0.0504,-0.367
0.9329,0.0387,-0.3553
0.9367,0.0328,-0.3572
0.9289,0.0348,-0.367
0.9171,0.0406,-0.3632
0.9171,0.0308,-0.373
0.9329,0.0367,-0.3632
0.9367,0.0485,-0.3593
0.9348,0.0348,-0.369
0.9329,0.0367,-0.3553
0.9329,0.0328,-0.3534
0.9329,0.0328,-0.3612
0.925,0.0367,-0.3593
0.9211,0.0387,-0.3593
0.9308,0.0426,-0.3632
0.9348,0.0426,-0.3632
0.9308,0.0464,-0.3632
0.9308,0.0426,-0.3593
0.9308,0.0426,-0.3572
0.9289,0.0367,-0.3572
0.9308,0.0367,-0.3612
0.9269,0.0367,-0.369
0.9269,0.0387,-0.367
0.9231,0.0406,-0.373
0.9289,0.0406,-0.367
0.925,0.0406,-0.3632
0.9289,0.0387,-0.367
0.9329,0.0426,-0.3612
0.9231,0.0328,-0.3651
0.9231,0.0348,-0.367
0.9269,0.0426,-0.3593
0.9308,0.0406,-0.3612
0.925,0.0387,-0.367
0.9269,0.0387,-0.3612
0.9269,0.0387,-0.3612
0.9329,0.0426,-0.3572
0.9231,0.0445,-0.3593
0.925,0.0387,-0.369
0.925,0.0445,-0.3612
0.925,0.0445,-0.3612
0.9269,0.0426,-0.3651
0.9308,0.0426,-0.3632
0.9308,0.0387,-0.3651
0.9289,0.0387,-0.3651
0.9231,0.0426,-0.371
0.9231,0.0406,-0.3651
0.9269,0.0426,-0.371
0.9211,0.0387,-0.3612
0.925,0.0426,-0.3632
0.925,0.0426,-0.3632
0.9211,0.0426,-0.3612
0.9289,0.0445,-0.3593
0.925,0.0464,-0.3612
0.9269,0.0464,-0.3651
0.925,0.0445,-0.367
0.925,0.0445,-0.373
0.9269,0.0445,-0.369
0.925,0.0464,-0.371
0.9269,0.0406,-0.371
0.9269,0.0406,-0.371
0.9289,0.0426,-0.367
0.9269,0.0445,-0.367
0.9269,0.0445,-0.367
0.9329,0.0426,-0.369
0.9329,0.0426,-0.369
0.9231,0.0426,-0.367
0.925,0.0426,-0.371
0.9289,0.0426,-0.3651
0.925,0.0426,-0.3768
0.9269,0.0387,-0.369
0.9269,0.0445,-0.367
0.9231,0.0445,-0.371
0.9269,0.0445,-0.371
0.9231,0.0504,-0.371
0.9211,0.0464,-0.3632
0.9231,0.0426,-0.367
0.925,0.0387,-0.3788
0.9171,0.0426,-0.3768
0.9094,0.0426,-0.3827
0.9289,0.0387,-0.369
0.9308,0.0308,-0.3651
0.9367,0.0231,-0.3632
0.9231,0.0269,-0.367
0.9171,0.0269,-0.3768
0.9171,0.0269,-0.3768
0.9308,0.0269,-0.3632
0.9308,0.0211,-0.3651
0.9289,0.0211,-0.367
0.9231,0.0191,-0.373
0.9231,0.0191,-0.373
0.9269,0.0191,-0.369
0.9269,0.025,-0.3632
0.9269,0.0289,-0.3651
0.925,0.025,-0.3768
0.925,0.025,-0.3768
0.9231,0.0289,-0.3749
0.925,0.0171,-0.3749
0.9289,0.0231,-0.369
0.9231,0.025,-0.3768
0.9231,0.025,-0.3768
0.9231,0.0289,-0.369
0.925,0.0269,-0.373
0.925,0.0231,-0.373
0.9231,0.0289,-0.3788
0.9231,0.0289,-0.3788
0.9211,0.0269,-0.3749
0.925,0.025,-0.371
0.925,0.025,-0.371
0.9211,0.0231,-0.373
0.9211,0.0231,-0.373
0.9308,0.0269,-0.371
0.9269,0.025,-0.3768
0.925,0.0231,-0.373
0.9211,0.0289,-0.3827
0.9211,0.0289,-0.3827
0.9171,0.0308,-0.3788
0.9231,0.0348,-0.373
0.9211,0.0269,-0.371
0.9171,0.0289,-0.3827
0.9231,0.0289,-0.3807
0.9231,0.0289,-0.3768
0.9211,0.0308,-0.371
0.9269,0.025,-0.3749
0.9192,0.0308,-0.3749
0.9231,0.0269,-0.3749
0.9231,0.0308,-0.3788
0.9231,0.0328,-0.3827
0.9231,0.0328,-0.373
0.9231,0.0269,-0.3807
0.9171,0.0308,-0.3788
0.9211,0.0308,-0.3749
0.9192,0.0348,-0.3749
0.9211,0.0328,-0.3768
0.9269,0.0308,-0.371
0.9231,0.0308,-0.3749
0.9211,0.0289,-0.3768
0.9211,0.0328,-0.3768
0.9211,0.0328,-0.3768
0.9231,0.0328,-0.3768
0.9289,0.0348,-0.3788
0.9192,0.0328,-0.3827
0.9192,0.0328,-0.3827
0.9231,0.0308,-0.371
0.9211,0.0348,-0.369
0.9308,0.0367,-0.3788
0.9171,0.0308,-0.373
0.9269,0.0289,-0.3768
0.9269,0.0289,-0.3768
0.9308,0.0348,-0.3749
0.925,0.0367,-0.3768
0.9231,0.0348,-0.367
0.9192,0.0348,-0.3788
0.9192,0.0348,-0.3788
0.9152,0.0387,-0.3827
0.9152,0.0367,-0.3807
0.9171,0.0308,-0.3847
0.9171,0.0328,-0.3847
0.9171,0.0348,-0.3807
0.925,0.0328,-0.3847
0.9192,0.0367,-0.3827
0.9211,0.0328,-0.3827
0.9152,0.0348,-0.3866
0.9211,0.0308,-0.3827
0.9211,0.0348,-0.3807
0.9211,0.0328,-0.3866
0.9192,0.0328,-0.3905
0.9211,0.0289,-0.3924
0.9269,0.0348,-0.3886
0.9329,0.0328,-0.3984
0.9211,0.0348,-0.3866
0.925,0.0348,-0.3924
0.9133,0.0308,-0.3944
0.9171,0.0367,-0.3866
0.9308,0.0348,-0.4042
0.9329,0.0308,-0.4081
0.9113,0.0348,-0.3984
0.8977,0.0406,-0.3749
0.9171,0.0387,-0.4042
0.9269,0.0348,-0.4159
0.925,0.0289,-0.4022
0.9171,0.0328,-0.4042
0.9035,0.0485,-0.4022
0.9035,0.0485,-0.4022
0.9152,0.0308,-0.4296
0.9192,0.0348,-0.4238
0.9133,0.0426,-0.41
0.8957,0.0582,-0.3944
0.9152,0.0582,-0.3984
0.9152,0.0601,-0.3984
0.9152,0.0543,-0.3963
0.9171,0.0601,-0.3984
0.9211,0.0621,-0.3963
0.9015,0.068,-0.3963
0.9015,0.068,-0.3963
0.9113,0.066,-0.4003
0.9192,0.0621,-0.3788
0.925,0.0797,-0.373
0.925,0.0797,-0.373
0.9289,0.0718,-0.373
0.9308,0.068,-0.3847
0.9308,0.0601,-0.3768
0.9133,0.066,-0.3749
0.9133,0.066,-0.3749
0.9152,0.0699,-0.3788
0.9289,0.0718,-0.369
0.9387,0.0718,-0.371
0.9387,0.0895,-0.3456
0.9367,0.1012,-0.3572
0.9171,0.113,-0.3456
0.9211,0.1168,-0.3299
0.9329,0.1149,-0.3162
0.9465,0.107,-0.3241
0.9387,0.0953,-0.3241
0.9289,0.0972,-0.3006
0.9269,0.0992,-0.2811
0.9329,0.113,-0.2713
0.9426,0.1286,-0.2674
0.9621,0.1305,-0.2752
0.968,0.1383,-0.2635
0.968,0.1461,-0.2459
0.9953,0.1735,-0.244
1.0442,0.1969,-0.2654
1.1126,0.2067,-0.2967
1.1516,0.2185,-0.2792
1.1947,0.2262,-0.2654
1.2279,0.236,-0.2557
1.0794,0.2712,-0.1756
1.0794,0.2712,-0.1756
1.0833,0.2732,-0.1619
1.1008,0.2849,-0.115
1.0989,0.3083,-0.0759
1.0051,0.2986,-0.0427
1.0051,0.2986,-0.0427
1.011,0.2927,-0.0368
1.0324,0.2907,-0.0349
1.0501,0.3044,-0.027
1.0207,0.236,-0.0368
1.0226,0.2243,-0.0368
1.011,0.1891,-0.0486
0.9758,0.2087,-0.0056
0.9797,0.2321,0.0158
0.9797,0.2321,0.0158
0.9934,0.2262,0.0295
0.9778,0.2028,0.0276
0.9583,0.1813,0.0432
0.9602,0.1852,0.0588
0.9602,0.1852,0.0588
0.9465,0.1891,0.0647
0.9231,0.1989,0.0491
